Wavenumber	NESR 1.00 cm-1
1019.53296	2.77854E-08
1019.65741	2.77677E-08
1019.78186	2.77436E-08
1019.90631	2.77132E-08
1020.03076	2.76766E-08
1020.15521	2.76339E-08
1020.27966	2.75853E-08
1020.40411	2.75308E-08
1020.52863	2.74707E-08
1020.65308	2.74051E-08
1020.77753	2.73344E-08
1020.90198	2.72587E-08
1021.02643	2.71782E-08
1021.15088	2.70933E-08
1021.27533	2.70041E-08
1021.39978	2.69110E-08
1021.52423	2.68142E-08
1021.64868	2.67139E-08
1021.77313	2.66104E-08
1021.89758	2.65041E-08
1022.02203	2.63950E-08
1022.14648	2.62835E-08
1022.27094	2.61697E-08
1022.39545	2.60539E-08
1022.51990	2.59364E-08
1022.64435	2.58172E-08
1022.76880	2.56966E-08
1022.89325	2.55749E-08
1023.01770	2.54520E-08
1023.14215	2.53281E-08
1023.26660	2.52035E-08
1023.39105	2.50782E-08
1023.51550	2.49525E-08
1023.63995	2.48263E-08
1023.76440	2.46998E-08
1023.88886	2.45730E-08
1024.01331	2.44462E-08
1024.13782	2.43193E-08
1024.26221	2.41925E-08
1024.38672	2.40657E-08
1024.51111	2.39392E-08
1024.63562	2.38128E-08
1024.76001	2.36868E-08
1024.88452	2.35610E-08
1025.00891	2.34356E-08
1025.13342	2.33106E-08
1025.25794	2.31861E-08
1025.38232	2.30620E-08
1025.50684	2.29384E-08
1025.63123	2.28153E-08
1025.75574	2.26928E-08
1025.88013	2.25708E-08
1026.00464	2.24495E-08
1026.12903	2.23287E-08
1026.25354	2.22086E-08
1026.37793	2.20891E-08
1026.50244	2.19703E-08
1026.62683	2.18521E-08
1026.75134	2.17346E-08
1026.87573	2.16177E-08
1027.00024	2.15016E-08
1027.12476	2.13861E-08
1027.24915	2.12714E-08
1027.37366	2.11573E-08
1027.49805	2.10440E-08
1027.62256	2.09315E-08
1027.74695	2.08196E-08
1027.87146	2.07085E-08
1027.99585	2.05981E-08
1028.12036	2.04885E-08
1028.24475	2.03796E-08
1028.36926	2.02714E-08
1028.49365	2.01640E-08
1028.61816	2.00573E-08
1028.74255	1.99514E-08
1028.86707	1.98462E-08
1028.99158	1.97417E-08
1029.11597	1.96380E-08
1029.24048	1.95351E-08
1029.36487	1.94329E-08
1029.48938	1.93315E-08
1029.61377	1.92307E-08
1029.73828	1.91308E-08
1029.86267	1.90316E-08
1029.98718	1.89331E-08
1030.11157	1.88353E-08
1030.23608	1.87383E-08
1030.36047	1.86420E-08
1030.48499	1.85464E-08
1030.60938	1.84516E-08
1030.73389	1.83575E-08
1030.85828	1.82641E-08
1030.98279	1.81714E-08
1031.10730	1.80793E-08
1031.23169	1.79881E-08
1031.35620	1.78975E-08
1031.48059	1.78076E-08
1031.60510	1.77184E-08
1031.72949	1.76299E-08
1031.85400	1.75420E-08
1031.97839	1.74549E-08
1032.10291	1.73684E-08
1032.22730	1.72825E-08
1032.35181	1.71974E-08
1032.47620	1.71128E-08
1032.60071	1.70290E-08
1032.72510	1.69457E-08
1032.84961	1.68631E-08
1032.97412	1.67811E-08
1033.09851	1.66998E-08
1033.22302	1.66190E-08
1033.34741	1.65389E-08
1033.47192	1.64593E-08
1033.59631	1.63804E-08
1033.72083	1.63021E-08
1033.84522	1.62243E-08
1033.96973	1.61471E-08
1034.09412	1.60704E-08
1034.21863	1.59943E-08
1034.34302	1.59188E-08
1034.46753	1.58438E-08
1034.59192	1.57694E-08
1034.71643	1.56955E-08
1034.84094	1.56221E-08
1034.96533	1.55492E-08
1035.08984	1.54768E-08
1035.21423	1.54049E-08
1035.33875	1.53336E-08
1035.46314	1.52627E-08
1035.58765	1.51922E-08
1035.71204	1.51223E-08
1035.83655	1.50528E-08
1035.96094	1.49838E-08
1036.08545	1.49152E-08
1036.20984	1.48471E-08
1036.33435	1.47794E-08
1036.45874	1.47121E-08
1036.58325	1.46453E-08
1036.70776	1.45789E-08
1036.83215	1.45129E-08
1036.95667	1.44473E-08
1037.08106	1.43821E-08
1037.20557	1.43172E-08
1037.32996	1.42528E-08
1037.45447	1.41888E-08
1037.57886	1.41251E-08
1037.70337	1.40618E-08
1037.82776	1.39989E-08
1037.95227	1.39363E-08
1038.07666	1.38740E-08
1038.20117	1.38121E-08
1038.32556	1.37506E-08
1038.45007	1.36894E-08
1038.57459	1.36285E-08
1038.69898	1.35679E-08
1038.82349	1.35077E-08
1038.94788	1.34478E-08
1039.07239	1.33882E-08
1039.19678	1.33289E-08
1039.32129	1.32699E-08
1039.44568	1.32112E-08
1039.57019	1.31528E-08
1039.69458	1.30947E-08
1039.81909	1.30369E-08
1039.94348	1.29793E-08
1040.06799	1.29221E-08
1040.19238	1.28651E-08
1040.31690	1.28085E-08
1040.44141	1.27521E-08
1040.56580	1.26959E-08
1040.69031	1.26401E-08
1040.81470	1.25845E-08
1040.93921	1.25292E-08
1041.06360	1.24741E-08
1041.18811	1.24194E-08
1041.31250	1.23648E-08
1041.43701	1.23105E-08
1041.56140	1.22565E-08
1041.68591	1.22028E-08
1041.81030	1.21493E-08
1041.93481	1.20960E-08
1042.05920	1.20431E-08
1042.18372	1.19903E-08
1042.30823	1.19378E-08
1042.43262	1.18856E-08
1042.55713	1.18336E-08
1042.68152	1.17819E-08
1042.80603	1.17304E-08
1042.93042	1.16792E-08
1043.05493	1.16282E-08
1043.17932	1.15775E-08
1043.30383	1.15270E-08
1043.42822	1.14767E-08
1043.55273	1.14267E-08
1043.67712	1.13770E-08
1043.80164	1.13275E-08
1043.92603	1.12783E-08
1044.05054	1.12293E-08
1044.17505	1.11805E-08
1044.29944	1.11320E-08
1044.42395	1.10837E-08
1044.54834	1.10357E-08
1044.67285	1.09880E-08
1044.79724	1.09405E-08
1044.92175	1.08932E-08
1045.04614	1.08462E-08
1045.17065	1.07994E-08
1045.29504	1.07529E-08
1045.41956	1.07067E-08
1045.54395	1.06607E-08
1045.66846	1.06149E-08
1045.79285	1.05694E-08
1045.91736	1.05241E-08
1046.04187	1.04791E-08
1046.16626	1.04344E-08
1046.29077	1.03898E-08
1046.41516	1.03456E-08
1046.53967	1.03016E-08
1046.66406	1.02578E-08
1046.78857	1.02143E-08
1046.91296	1.01710E-08
1047.03748	1.01280E-08
1047.16187	1.00853E-08
1047.28638	1.00428E-08
1047.41077	1.00005E-08
1047.53528	9.95849E-09
1047.65967	9.91672E-09
1047.78418	9.87519E-09
1047.90869	9.83391E-09
1048.03308	9.79287E-09
1048.15759	9.75209E-09
1048.28198	9.71155E-09
1048.40649	9.67124E-09
1048.53088	9.63119E-09
1048.65540	9.59138E-09
1048.77979	9.55182E-09
1048.90430	9.51248E-09
1049.02869	9.47340E-09
1049.15320	9.43455E-09
1049.27759	9.39592E-09
1049.40210	9.35754E-09
1049.52649	9.31940E-09
1049.65100	9.28149E-09
1049.77551	9.24381E-09
1049.89990	9.20636E-09
1050.02441	9.16914E-09
1050.14880	9.13216E-09
1050.27332	9.09539E-09
1050.39771	9.05885E-09
1050.52222	9.02253E-09
1050.64661	8.98644E-09
1050.77112	8.95057E-09
1050.89551	8.91492E-09
1051.02002	8.87949E-09
1051.14441	8.84426E-09
1051.26892	8.80926E-09
1051.39331	8.77448E-09
1051.51782	8.73989E-09
1051.64233	8.70553E-09
1051.76672	8.67135E-09
1051.89124	8.63740E-09
1052.01563	8.60364E-09
1052.14014	8.57009E-09
1052.26453	8.53673E-09
1052.38904	8.50360E-09
1052.51343	8.47064E-09
1052.63794	8.43789E-09
1052.76233	8.40533E-09
1052.88684	8.37295E-09
1053.01123	8.34079E-09
1053.13574	8.30880E-09
1053.26013	8.27699E-09
1053.38464	8.24537E-09
1053.50903	8.21393E-09
1053.63355	8.18268E-09
1053.75806	8.15160E-09
1053.88245	8.12071E-09
1054.00696	8.09000E-09
1054.13135	8.05946E-09
1054.25586	8.02909E-09
1054.38025	7.99890E-09
1054.50476	7.96887E-09
1054.62915	7.93902E-09
1054.75366	7.90932E-09
1054.87805	7.87983E-09
1055.00256	7.85046E-09
1055.12695	7.82126E-09
1055.25147	7.79225E-09
1055.37585	7.76338E-09
1055.50037	7.73467E-09
1055.62488	7.70611E-09
1055.74927	7.67771E-09
1055.87378	7.64947E-09
1055.99817	7.62140E-09
1056.12268	7.59346E-09
1056.24707	7.56568E-09
1056.37158	7.53805E-09
1056.49597	7.51058E-09
1056.62048	7.48324E-09
1056.74487	7.45606E-09
1056.86939	7.42901E-09
1056.99377	7.40213E-09
1057.11829	7.37538E-09
1057.24268	7.34879E-09
1057.36719	7.32233E-09
1057.49170	7.29601E-09
1057.61609	7.26984E-09
1057.74060	7.24379E-09
1057.86499	7.21788E-09
1057.98950	7.19212E-09
1058.11389	7.16651E-09
1058.23840	7.14102E-09
1058.36279	7.11568E-09
1058.48731	7.09046E-09
1058.61169	7.06538E-09
1058.73621	7.04043E-09
1058.86060	7.01563E-09
1058.98511	6.99095E-09
1059.10950	6.96642E-09
1059.23401	6.94199E-09
1059.35852	6.91771E-09
1059.48291	6.89357E-09
1059.60742	6.86954E-09
1059.73181	6.84564E-09
1059.85632	6.82188E-09
1059.98071	6.79825E-09
1060.10523	6.77475E-09
1060.22961	6.75137E-09
1060.35413	6.72811E-09
1060.47852	6.70498E-09
1060.60303	6.68197E-09
1060.72742	6.65910E-09
1060.85193	6.63634E-09
1060.97632	6.61372E-09
1061.10083	6.59121E-09
1061.22534	6.56883E-09
1061.34973	6.54659E-09
1061.47424	6.52445E-09
1061.59863	6.50242E-09
1061.72315	6.48053E-09
1061.84753	6.45876E-09
1061.97205	6.43711E-09
1062.09644	6.41558E-09
1062.22095	6.39417E-09
1062.34534	6.37287E-09
1062.46985	6.35169E-09
1062.59424	6.33063E-09
1062.71875	6.30968E-09
1062.84314	6.28885E-09
1062.96765	6.26814E-09
1063.09216	6.24754E-09
1063.21655	6.22705E-09
1063.34106	6.20668E-09
1063.46545	6.18642E-09
1063.58997	6.16627E-09
1063.71436	6.14623E-09
1063.83887	6.12631E-09
1063.96326	6.10650E-09
1064.08777	6.08678E-09
1064.21216	6.06718E-09
1064.33667	6.04769E-09
1064.46106	6.02831E-09
1064.58557	6.00904E-09
1064.70996	5.98987E-09
1064.83447	5.97080E-09
1064.95898	5.95184E-09
1065.08337	5.93298E-09
1065.20789	5.91423E-09
1065.33228	5.89559E-09
1065.45679	5.87703E-09
1065.58118	5.85858E-09
1065.70569	5.84023E-09
1065.83008	5.82198E-09
1065.95459	5.80383E-09
1066.07898	5.78578E-09
1066.20349	5.76782E-09
1066.32788	5.74996E-09
1066.45239	5.73220E-09
1066.57678	5.71454E-09
1066.70129	5.69697E-09
1066.82581	5.67949E-09
1066.95020	5.66211E-09
1067.07471	5.64481E-09
1067.19910	5.62761E-09
1067.32361	5.61050E-09
1067.44800	5.59348E-09
1067.57251	5.57654E-09
1067.69690	5.55969E-09
1067.82141	5.54293E-09
1067.94580	5.52626E-09
1068.07031	5.50967E-09
1068.19470	5.49317E-09
1068.31921	5.47676E-09
1068.44360	5.46042E-09
1068.56812	5.44417E-09
1068.69263	5.42801E-09
1068.81702	5.41193E-09
1068.94153	5.39592E-09
1069.06592	5.38000E-09
1069.19043	5.36416E-09
1069.31482	5.34840E-09
1069.43933	5.33271E-09
1069.56372	5.31710E-09
1069.68823	5.30157E-09
1069.81262	5.28613E-09
1069.93713	5.27075E-09
1070.06152	5.25546E-09
1070.18604	5.24025E-09
1070.31043	5.22511E-09
1070.43494	5.21003E-09
1070.55945	5.19505E-09
1070.68384	5.18013E-09
1070.80835	5.16529E-09
1070.93274	5.15053E-09
1071.05725	5.13584E-09
1071.18164	5.12122E-09
1071.30615	5.10667E-09
1071.43054	5.09220E-09
1071.55505	5.07780E-09
1071.67944	5.06348E-09
1071.80396	5.04922E-09
1071.92835	5.03503E-09
1072.05286	5.02093E-09
1072.17725	5.00689E-09
1072.30176	4.99293E-09
1072.42627	4.97903E-09
1072.55066	4.96521E-09
1072.67517	4.95145E-09
1072.79956	4.93778E-09
1072.92407	4.92417E-09
1073.04846	4.91064E-09
1073.17297	4.89717E-09
1073.29736	4.88378E-09
1073.42188	4.87045E-09
1073.54627	4.85720E-09
1073.67078	4.84403E-09
1073.79517	4.83092E-09
1073.91968	4.81788E-09
1074.04407	4.80491E-09
1074.16858	4.79202E-09
1074.29309	4.77920E-09
1074.41748	4.76645E-09
1074.54199	4.75376E-09
1074.66638	4.74116E-09
1074.79089	4.72861E-09
1074.91528	4.71615E-09
1075.03980	4.70375E-09
1075.16419	4.69143E-09
1075.28870	4.67917E-09
1075.41309	4.66699E-09
1075.53760	4.65488E-09
1075.66199	4.64283E-09
1075.78650	4.63086E-09
1075.91089	4.61897E-09
1076.03540	4.60713E-09
1076.15979	4.59538E-09
1076.28430	4.58370E-09
1076.40881	4.57209E-09
1076.53320	4.56054E-09
1076.65772	4.54907E-09
1076.78210	4.53767E-09
1076.90662	4.52634E-09
1077.03101	4.51508E-09
1077.15552	4.50389E-09
1077.27991	4.49278E-09
1077.40442	4.48173E-09
1077.52881	4.47075E-09
1077.65332	4.45984E-09
1077.77771	4.44900E-09
1077.90222	4.43823E-09
1078.02661	4.42753E-09
1078.15112	4.41690E-09
1078.27564	4.40635E-09
1078.40002	4.39585E-09
1078.52454	4.38543E-09
1078.64893	4.37508E-09
1078.77344	4.36480E-09
1078.89783	4.35458E-09
1079.02234	4.34443E-09
1079.14673	4.33434E-09
1079.27124	4.32433E-09
1079.39563	4.31438E-09
1079.52014	4.30450E-09
1079.64453	4.29468E-09
1079.76904	4.28493E-09
1079.89343	4.27524E-09
1080.01794	4.26562E-09
1080.14246	4.25606E-09
1080.26685	4.24657E-09
1080.39136	4.23714E-09
1080.51575	4.22778E-09
1080.64026	4.21847E-09
1080.76465	4.20924E-09
1080.88916	4.20005E-09
1081.01355	4.19094E-09
1081.13806	4.18188E-09
1081.26245	4.17288E-09
1081.38696	4.16394E-09
1081.51135	4.15507E-09
1081.63586	4.14625E-09
1081.76025	4.13748E-09
1081.88477	4.12877E-09
1082.00928	4.12013E-09
1082.13367	4.11154E-09
1082.25818	4.10300E-09
1082.38257	4.09452E-09
1082.50708	4.08609E-09
1082.63147	4.07772E-09
1082.75598	4.06940E-09
1082.88037	4.06113E-09
1083.00488	4.05292E-09
1083.12927	4.04476E-09
1083.25378	4.03665E-09
1083.37817	4.02859E-09
1083.50269	4.02058E-09
1083.62708	4.01262E-09
1083.75159	4.00471E-09
1083.87610	3.99684E-09
1084.00049	3.98903E-09
1084.12500	3.98126E-09
1084.24939	3.97354E-09
1084.37390	3.96587E-09
1084.49829	3.95824E-09
1084.62280	3.95066E-09
1084.74719	3.94312E-09
1084.87170	3.93562E-09
1084.99609	3.92817E-09
1085.12061	3.92076E-09
1085.24500	3.91340E-09
1085.36951	3.90607E-09
1085.49390	3.89879E-09
1085.61841	3.89155E-09
1085.74292	3.88435E-09
1085.86731	3.87719E-09
1085.99182	3.87008E-09
1086.11621	3.86300E-09
1086.24072	3.85596E-09
1086.36511	3.84896E-09
1086.48962	3.84200E-09
1086.61401	3.83508E-09
1086.73853	3.82820E-09
1086.86292	3.82135E-09
1086.98743	3.81455E-09
1087.11182	3.80777E-09
1087.23633	3.80104E-09
1087.36072	3.79435E-09
1087.48523	3.78769E-09
1087.60974	3.78107E-09
1087.73413	3.77448E-09
1087.85864	3.76793E-09
1087.98303	3.76141E-09
1088.10754	3.75493E-09
1088.23193	3.74849E-09
1088.35645	3.74209E-09
1088.48084	3.73572E-09
1088.60535	3.72938E-09
1088.72974	3.72308E-09
1088.85425	3.71682E-09
1088.97864	3.71059E-09
1089.10315	3.70439E-09
1089.22754	3.69824E-09
1089.35205	3.69211E-09
1089.47656	3.68603E-09
1089.60095	3.67998E-09
1089.72546	3.67396E-09
1089.84985	3.66798E-09
1089.97437	3.66203E-09
1090.09876	3.65612E-09
1090.22327	3.65024E-09
1090.34766	3.64440E-09
1090.47217	3.63859E-09
1090.59656	3.63283E-09
1090.72107	3.62709E-09
1090.84546	3.62139E-09
1090.96997	3.61573E-09
1091.09436	3.61011E-09
1091.21887	3.60452E-09
1091.34338	3.59896E-09
1091.46777	3.59344E-09
1091.59229	3.58796E-09
1091.71668	3.58252E-09
1091.84119	3.57711E-09
1091.96558	3.57174E-09
1092.09009	3.56640E-09
1092.21448	3.56111E-09
1092.33899	3.55585E-09
1092.46338	3.55062E-09
1092.58789	3.54544E-09
1092.71228	3.54029E-09
1092.83679	3.53517E-09
1092.96118	3.53010E-09
1093.08569	3.52506E-09
1093.21021	3.52006E-09
1093.33460	3.51510E-09
1093.45911	3.51017E-09
1093.58350	3.50529E-09
1093.70801	3.50044E-09
1093.83240	3.49563E-09
1093.95691	3.49085E-09
1094.08130	3.48612E-09
1094.20581	3.48142E-09
1094.33020	3.47676E-09
1094.45471	3.47213E-09
1094.57910	3.46755E-09
1094.70361	3.46300E-09
1094.82800	3.45849E-09
1094.95252	3.45402E-09
1095.07703	3.44958E-09
1095.20142	3.44518E-09
1095.32593	3.44082E-09
1095.45032	3.43650E-09
1095.57483	3.43221E-09
1095.69922	3.42796E-09
1095.82373	3.42375E-09
1095.94812	3.41957E-09
1096.07263	3.41543E-09
1096.19702	3.41133E-09
1096.32153	3.40726E-09
1096.44592	3.40323E-09
1096.57044	3.39923E-09
1096.69482	3.39527E-09
1096.81934	3.39135E-09
1096.94385	3.38745E-09
1097.06824	3.38360E-09
1097.19275	3.37978E-09
1097.31714	3.37599E-09
1097.44165	3.37224E-09
1097.56604	3.36852E-09
1097.69055	3.36483E-09
1097.81494	3.36117E-09
1097.93945	3.35755E-09
1098.06384	3.35396E-09
1098.18835	3.35040E-09
1098.31274	3.34687E-09
1098.43726	3.34338E-09
1098.56165	3.33991E-09
1098.68616	3.33648E-09
1098.81055	3.33308E-09
1098.93506	3.32971E-09
1099.05957	3.32636E-09
1099.18396	3.32305E-09
1099.30847	3.31976E-09
1099.43286	3.31650E-09
1099.55737	3.31327E-09
1099.68176	3.31007E-09
1099.80627	3.30689E-09
1099.93066	3.30374E-09
1100.05518	3.30062E-09
1100.17957	3.29752E-09
1100.30408	3.29444E-09
1100.42847	3.29139E-09
1100.55298	3.28837E-09
1100.67737	3.28537E-09
1100.80188	3.28239E-09
1100.92639	3.27944E-09
1101.05078	3.27652E-09
1101.17529	3.27361E-09
1101.29968	3.27072E-09
1101.42419	3.26786E-09
1101.54858	3.26502E-09
1101.67310	3.26220E-09
1101.79749	3.25940E-09
1101.92200	3.25662E-09
1102.04639	3.25387E-09
1102.17090	3.25113E-09
1102.29529	3.24841E-09
1102.41980	3.24571E-09
1102.54419	3.24303E-09
1102.66870	3.24036E-09
1102.79321	3.23772E-09
1102.91760	3.23509E-09
1103.04211	3.23248E-09
1103.16650	3.22989E-09
1103.29102	3.22732E-09
1103.41541	3.22476E-09
1103.53992	3.22221E-09
1103.66431	3.21969E-09
1103.78882	3.21718E-09
1103.91321	3.21469E-09
1104.03772	3.21221E-09
1104.16211	3.20974E-09
1104.28662	3.20730E-09
1104.41101	3.20486E-09
1104.53552	3.20245E-09
1104.66003	3.20005E-09
1104.78442	3.19766E-09
1104.90894	3.19528E-09
1105.03333	3.19293E-09
1105.15784	3.19058E-09
1105.28223	3.18825E-09
1105.40674	3.18593E-09
1105.53113	3.18363E-09
1105.65564	3.18135E-09
1105.78003	3.17907E-09
1105.90454	3.17681E-09
1106.02893	3.17457E-09
1106.15344	3.17233E-09
1106.27783	3.17012E-09
1106.40234	3.16791E-09
1106.52686	3.16572E-09
1106.65125	3.16354E-09
1106.77576	3.16138E-09
1106.90015	3.15923E-09
1107.02466	3.15709E-09
1107.14905	3.15497E-09
1107.27356	3.15286E-09
1107.39795	3.15076E-09
1107.52246	3.14868E-09
1107.64685	3.14661E-09
1107.77136	3.14456E-09
1107.89575	3.14252E-09
1108.02026	3.14049E-09
1108.14465	3.13848E-09
1108.26917	3.13648E-09
1108.39368	3.13450E-09
1108.51807	3.13253E-09
1108.64258	3.13057E-09
1108.76697	3.12863E-09
1108.89148	3.12670E-09
1109.01587	3.12479E-09
1109.14038	3.12288E-09
1109.26477	3.12100E-09
1109.38928	3.11912E-09
1109.51367	3.11726E-09
1109.63818	3.11542E-09
1109.76257	3.11359E-09
1109.88709	3.11177E-09
1110.01148	3.10997E-09
1110.13599	3.10819E-09
1110.26050	3.10641E-09
1110.38489	3.10465E-09
1110.50940	3.10291E-09
1110.63379	3.10118E-09
1110.75830	3.09946E-09
1110.88269	3.09776E-09
1111.00720	3.09607E-09
1111.13159	3.09439E-09
1111.25610	3.09273E-09
1111.38049	3.09108E-09
1111.50501	3.08945E-09
1111.62940	3.08783E-09
1111.75391	3.08622E-09
1111.87830	3.08462E-09
1112.00281	3.08305E-09
1112.12732	3.08148E-09
1112.25171	3.07992E-09
1112.37622	3.07838E-09
1112.50061	3.07685E-09
1112.62512	3.07534E-09
1112.74951	3.07383E-09
1112.87402	3.07234E-09
1112.99841	3.07086E-09
1113.12293	3.06939E-09
1113.24731	3.06794E-09
1113.37183	3.06649E-09
1113.49622	3.06506E-09
1113.62073	3.06364E-09
1113.74512	3.06223E-09
1113.86963	3.06083E-09
1113.99414	3.05944E-09
1114.11853	3.05806E-09
1114.24304	3.05669E-09
1114.36743	3.05533E-09
1114.49194	3.05398E-09
1114.61633	3.05263E-09
1114.74085	3.05130E-09
1114.86523	3.04998E-09
1114.98975	3.04867E-09
1115.11414	3.04736E-09
1115.23865	3.04606E-09
1115.36304	3.04477E-09
1115.48755	3.04349E-09
1115.61194	3.04221E-09
1115.73645	3.04095E-09
1115.86096	3.03968E-09
1115.98535	3.03843E-09
1116.10986	3.03718E-09
1116.23425	3.03594E-09
1116.35877	3.03470E-09
1116.48315	3.03347E-09
1116.60767	3.03225E-09
1116.73206	3.03103E-09
1116.85657	3.02981E-09
1116.98096	3.02860E-09
1117.10547	3.02740E-09
1117.22986	3.02619E-09
1117.35437	3.02499E-09
1117.47876	3.02380E-09
1117.60327	3.02261E-09
1117.72778	3.02142E-09
1117.85217	3.02023E-09
1117.97669	3.01905E-09
1118.10107	3.01787E-09
1118.22559	3.01670E-09
1118.34998	3.01553E-09
1118.47449	3.01436E-09
1118.59888	3.01319E-09
1118.72339	3.01202E-09
1118.84778	3.01086E-09
1118.97229	3.00969E-09
1119.09668	3.00854E-09
1119.22119	3.00738E-09
1119.34558	3.00622E-09
1119.47009	3.00506E-09
1119.59448	3.00391E-09
1119.71899	3.00275E-09
1119.84351	3.00160E-09
1119.96790	3.00045E-09
1120.09241	2.99930E-09
1120.21680	2.99816E-09
1120.34131	2.99701E-09
1120.46570	2.99586E-09
1120.59021	2.99472E-09
1120.71460	2.99358E-09
1120.83911	2.99244E-09
1120.96350	2.99129E-09
1121.08801	2.99015E-09
1121.21240	2.98902E-09
1121.33691	2.98788E-09
1121.46130	2.98674E-09
1121.58582	2.98561E-09
1121.71033	2.98448E-09
1121.83472	2.98335E-09
1121.95923	2.98223E-09
1122.08362	2.98110E-09
1122.20813	2.97998E-09
1122.33252	2.97885E-09
1122.45703	2.97774E-09
1122.58142	2.97662E-09
1122.70593	2.97551E-09
1122.83032	2.97439E-09
1122.95483	2.97329E-09
1123.07922	2.97218E-09
1123.20374	2.97108E-09
1123.32813	2.96998E-09
1123.45264	2.96888E-09
1123.57715	2.96779E-09
1123.70154	2.96670E-09
1123.82605	2.96562E-09
1123.95044	2.96454E-09
1124.07495	2.96346E-09
1124.19934	2.96239E-09
1124.32385	2.96132E-09
1124.44824	2.96026E-09
1124.57275	2.95920E-09
1124.69714	2.95815E-09
1124.82166	2.95710E-09
1124.94605	2.95606E-09
1125.07056	2.95502E-09
1125.19495	2.95399E-09
1125.31946	2.95296E-09
1125.44397	2.95194E-09
1125.56836	2.95092E-09
1125.69287	2.94991E-09
1125.81726	2.94891E-09
1125.94177	2.94791E-09
1126.06616	2.94691E-09
1126.19067	2.94593E-09
1126.31506	2.94495E-09
1126.43958	2.94398E-09
1126.56397	2.94301E-09
1126.68848	2.94205E-09
1126.81287	2.94109E-09
1126.93738	2.94014E-09
1127.06177	2.93920E-09
1127.18628	2.93827E-09
1127.31079	2.93734E-09
1127.43518	2.93641E-09
1127.55969	2.93550E-09
1127.68408	2.93459E-09
1127.80859	2.93368E-09
1127.93298	2.93278E-09
1128.05750	2.93190E-09
1128.18189	2.93101E-09
1128.30640	2.93013E-09
1128.43079	2.92926E-09
1128.55530	2.92839E-09
1128.67969	2.92753E-09
1128.80420	2.92667E-09
1128.92859	2.92582E-09
1129.05310	2.92497E-09
1129.17761	2.92413E-09
1129.30200	2.92330E-09
1129.42651	2.92247E-09
1129.55090	2.92165E-09
1129.67542	2.92083E-09
1129.79981	2.92001E-09
1129.92432	2.91920E-09
1130.04871	2.91839E-09
1130.17322	2.91759E-09
1130.29761	2.91679E-09
1130.42212	2.91599E-09
1130.54651	2.91520E-09
1130.67102	2.91441E-09
1130.79541	2.91362E-09
1130.91992	2.91284E-09
1131.04443	2.91206E-09
1131.16882	2.91128E-09
1131.29334	2.91050E-09
1131.41773	2.90973E-09
1131.54224	2.90896E-09
1131.66663	2.90819E-09
1131.79114	2.90742E-09
1131.91553	2.90665E-09
1132.04004	2.90589E-09
1132.16443	2.90512E-09
1132.28894	2.90436E-09
1132.41333	2.90360E-09
1132.53784	2.90283E-09
1132.66223	2.90207E-09
1132.78674	2.90131E-09
1132.91126	2.90054E-09
1133.03565	2.89978E-09
1133.16016	2.89901E-09
1133.28455	2.89825E-09
1133.40906	2.89748E-09
1133.53345	2.89671E-09
1133.65796	2.89594E-09
1133.78235	2.89517E-09
1133.90686	2.89440E-09
1134.03125	2.89363E-09
1134.15576	2.89285E-09
1134.28015	2.89208E-09
1134.40466	2.89130E-09
1134.52905	2.89052E-09
1134.65356	2.88974E-09
1134.77808	2.88896E-09
1134.90247	2.88818E-09
1135.02698	2.88739E-09
1135.15137	2.88660E-09
1135.27588	2.88581E-09
1135.40027	2.88501E-09
1135.52478	2.88422E-09
1135.64917	2.88342E-09
1135.77368	2.88262E-09
1135.89807	2.88182E-09
1136.02258	2.88102E-09
1136.14697	2.88022E-09
1136.27148	2.87941E-09
1136.39587	2.87860E-09
1136.52039	2.87779E-09
1136.64490	2.87698E-09
1136.76929	2.87617E-09
1136.89380	2.87536E-09
1137.01819	2.87454E-09
1137.14270	2.87372E-09
1137.26709	2.87291E-09
1137.39160	2.87209E-09
1137.51599	2.87127E-09
1137.64050	2.87046E-09
1137.76489	2.86964E-09
1137.88940	2.86882E-09
1138.01379	2.86800E-09
1138.13831	2.86719E-09
1138.26270	2.86637E-09
1138.38721	2.86556E-09
1138.51172	2.86474E-09
1138.63611	2.86393E-09
1138.76062	2.86311E-09
1138.88501	2.86230E-09
1139.00952	2.86150E-09
1139.13391	2.86069E-09
1139.25842	2.85988E-09
1139.38281	2.85908E-09
1139.50732	2.85828E-09
1139.63171	2.85749E-09
1139.75623	2.85670E-09
1139.88062	2.85591E-09
1140.00513	2.85512E-09
1140.12952	2.85434E-09
1140.25403	2.85356E-09
1140.37854	2.85279E-09
1140.50293	2.85202E-09
1140.62744	2.85125E-09
1140.75183	2.85049E-09
1140.87634	2.84974E-09
1141.00073	2.84899E-09
1141.12524	2.84825E-09
1141.24963	2.84751E-09
1141.37415	2.84678E-09
1141.49854	2.84605E-09
1141.62305	2.84533E-09
1141.74744	2.84462E-09
1141.87195	2.84392E-09
1141.99634	2.84321E-09
1142.12085	2.84252E-09
1142.24524	2.84184E-09
1142.36975	2.84115E-09
1142.49426	2.84048E-09
1142.61865	2.83982E-09
1142.74316	2.83916E-09
1142.86755	2.83851E-09
1142.99207	2.83787E-09
1143.11646	2.83723E-09
1143.24097	2.83660E-09
1143.36536	2.83598E-09
1143.48987	2.83537E-09
1143.61426	2.83476E-09
1143.73877	2.83416E-09
1143.86316	2.83357E-09
1143.98767	2.83299E-09
1144.11206	2.83241E-09
1144.23657	2.83184E-09
1144.36108	2.83128E-09
1144.48547	2.83072E-09
1144.60999	2.83018E-09
1144.73438	2.82963E-09
1144.85889	2.82910E-09
1144.98328	2.82857E-09
1145.10779	2.82805E-09
1145.23218	2.82754E-09
1145.35669	2.82703E-09
1145.48108	2.82653E-09
1145.60559	2.82604E-09
1145.72998	2.82555E-09
1145.85449	2.82506E-09
1145.97888	2.82459E-09
1146.10339	2.82411E-09
1146.22791	2.82365E-09
1146.35230	2.82318E-09
1146.47681	2.82273E-09
1146.60120	2.82228E-09
1146.72571	2.82183E-09
1146.85010	2.82139E-09
1146.97461	2.82095E-09
1147.09900	2.82051E-09
1147.22351	2.82008E-09
1147.34790	2.81965E-09
1147.47241	2.81923E-09
1147.59680	2.81880E-09
1147.72131	2.81839E-09
1147.84570	2.81797E-09
1147.97022	2.81756E-09
1148.09473	2.81715E-09
1148.21912	2.81674E-09
1148.34363	2.81633E-09
1148.46802	2.81592E-09
1148.59253	2.81552E-09
1148.71692	2.81512E-09
1148.84143	2.81472E-09
1148.96582	2.81432E-09
1149.09033	2.81392E-09
1149.21472	2.81352E-09
1149.33923	2.81313E-09
1149.46362	2.81273E-09
1149.58814	2.81234E-09
1149.71252	2.81194E-09
1149.83704	2.81155E-09
1149.96155	2.81115E-09
1150.08594	2.81076E-09
1150.21045	2.81037E-09
1150.33484	2.80997E-09
1150.45935	2.80957E-09
1150.58374	2.80918E-09
1150.70825	2.80878E-09
1150.83264	2.80839E-09
1150.95715	2.80799E-09
1151.08154	2.80759E-09
1151.20606	2.80720E-09
1151.33044	2.80680E-09
1151.45496	2.80640E-09
1151.57935	2.80600E-09
1151.70386	2.80560E-09
1151.82837	2.80520E-09
1151.95276	2.80481E-09
1152.07727	2.80441E-09
1152.20166	2.80401E-09
1152.32617	2.80361E-09
1152.45056	2.80321E-09
1152.57507	2.80281E-09
1152.69946	2.80241E-09
1152.82398	2.80201E-09
1152.94836	2.80161E-09
1153.07288	2.80122E-09
1153.19727	2.80082E-09
1153.32178	2.80042E-09
1153.44617	2.80003E-09
1153.57068	2.79963E-09
1153.69519	2.79924E-09
1153.81958	2.79886E-09
1153.94409	2.79847E-09
1154.06848	2.79808E-09
1154.19299	2.79770E-09
1154.31738	2.79732E-09
1154.44190	2.79694E-09
1154.56628	2.79657E-09
1154.69080	2.79620E-09
1154.81519	2.79583E-09
1154.93970	2.79546E-09
1155.06409	2.79510E-09
1155.18860	2.79474E-09
1155.31299	2.79439E-09
1155.43750	2.79404E-09
1155.56201	2.79370E-09
1155.68640	2.79336E-09
1155.81091	2.79302E-09
1155.93530	2.79269E-09
1156.05981	2.79237E-09
1156.18420	2.79206E-09
1156.30872	2.79174E-09
1156.43311	2.79144E-09
1156.55762	2.79114E-09
1156.68201	2.79085E-09
1156.80652	2.79056E-09
1156.93091	2.79028E-09
1157.05542	2.79000E-09
1157.17981	2.78974E-09
1157.30432	2.78948E-09
1157.42883	2.78923E-09
1157.55322	2.78898E-09
1157.67773	2.78874E-09
1157.80212	2.78851E-09
1157.92664	2.78828E-09
1158.05103	2.78807E-09
1158.17554	2.78786E-09
1158.29993	2.78766E-09
1158.42444	2.78746E-09
1158.54883	2.78728E-09
1158.67334	2.78709E-09
1158.79773	2.78692E-09
1158.92224	2.78676E-09
1159.04663	2.78660E-09
1159.17114	2.78645E-09
1159.29565	2.78631E-09
1159.42004	2.78617E-09
1159.54456	2.78604E-09
1159.66895	2.78591E-09
1159.79346	2.78580E-09
1159.91785	2.78569E-09
1160.04236	2.78559E-09
1160.16675	2.78549E-09
1160.29126	2.78540E-09
1160.41565	2.78531E-09
1160.54016	2.78524E-09
1160.66455	2.78516E-09
1160.78906	2.78509E-09
1160.91345	2.78503E-09
1161.03796	2.78497E-09
1161.16248	2.78492E-09
1161.28687	2.78487E-09
1161.41138	2.78482E-09
1161.53577	2.78478E-09
1161.66028	2.78473E-09
1161.78467	2.78470E-09
1161.90918	2.78466E-09
1162.03357	2.78463E-09
1162.15808	2.78460E-09
1162.28247	2.78457E-09
1162.40698	2.78454E-09
1162.53137	2.78452E-09
1162.65588	2.78449E-09
1162.78027	2.78446E-09
1162.90479	2.78444E-09
1163.02930	2.78441E-09
1163.15369	2.78438E-09
1163.27820	2.78436E-09
1163.40259	2.78432E-09
1163.52710	2.78429E-09
1163.65149	2.78425E-09
1163.77600	2.78422E-09
1163.90039	2.78417E-09
1164.02490	2.78413E-09
1164.14929	2.78408E-09
1164.27380	2.78403E-09
1164.39819	2.78397E-09
1164.52271	2.78391E-09
1164.64710	2.78384E-09
1164.77161	2.78377E-09
1164.89600	2.78369E-09
1165.02051	2.78361E-09
1165.14502	2.78352E-09
1165.26941	2.78342E-09
1165.39392	2.78332E-09
1165.51831	2.78321E-09
1165.64282	2.78310E-09
1165.76721	2.78297E-09
1165.89172	2.78284E-09
1166.01611	2.78270E-09
1166.14063	2.78255E-09
1166.26502	2.78240E-09
1166.38953	2.78224E-09
1166.51392	2.78207E-09
1166.63843	2.78189E-09
1166.76282	2.78170E-09
1166.88733	2.78150E-09
1167.01184	2.78130E-09
1167.13623	2.78108E-09
1167.26074	2.78086E-09
1167.38513	2.78063E-09
1167.50964	2.78039E-09
1167.63403	2.78014E-09
1167.75855	2.77988E-09
1167.88294	2.77962E-09
1168.00745	2.77935E-09
1168.13184	2.77907E-09
1168.25635	2.77878E-09
1168.38074	2.77848E-09
1168.50525	2.77818E-09
1168.62964	2.77786E-09
1168.75415	2.77754E-09
1168.87866	2.77722E-09
1169.00305	2.77688E-09
1169.12756	2.77654E-09
1169.25195	2.77620E-09
1169.37647	2.77584E-09
1169.50085	2.77549E-09
1169.62537	2.77512E-09
1169.74976	2.77475E-09
1169.87427	2.77438E-09
1169.99866	2.77400E-09
1170.12317	2.77362E-09
1170.24756	2.77323E-09
1170.37207	2.77284E-09
1170.49646	2.77245E-09
1170.62097	2.77205E-09
1170.74548	2.77166E-09
1170.86987	2.77126E-09
1170.99439	2.77085E-09
1171.11877	2.77045E-09
1171.24329	2.77005E-09
1171.36768	2.76964E-09
1171.49219	2.76924E-09
1171.61658	2.76884E-09
1171.74109	2.76844E-09
1171.86548	2.76804E-09
1171.98999	2.76764E-09
1172.11438	2.76724E-09
1172.23889	2.76685E-09
1172.36328	2.76646E-09
1172.48779	2.76607E-09
1172.61231	2.76569E-09
1172.73669	2.76531E-09
1172.86121	2.76493E-09
1172.98560	2.76456E-09
1173.11011	2.76420E-09
1173.23450	2.76384E-09
1173.35901	2.76349E-09
1173.48340	2.76314E-09
1173.60791	2.76280E-09
1173.73230	2.76247E-09
1173.85681	2.76215E-09
1173.98120	2.76183E-09
1174.10571	2.76152E-09
1174.23010	2.76122E-09
1174.35461	2.76093E-09
1174.47913	2.76064E-09
1174.60352	2.76037E-09
1174.72803	2.76010E-09
1174.85242	2.75985E-09
1174.97693	2.75960E-09
1175.10132	2.75936E-09
1175.22583	2.75914E-09
1175.35022	2.75892E-09
1175.47473	2.75871E-09
1175.59912	2.75852E-09
1175.72363	2.75833E-09
1175.84802	2.75815E-09
1175.97253	2.75799E-09
1176.09692	2.75783E-09
1176.22144	2.75769E-09
1176.34595	2.75756E-09
1176.47034	2.75743E-09
1176.59485	2.75732E-09
1176.71924	2.75722E-09
1176.84375	2.75712E-09
1176.96814	2.75704E-09
1177.09265	2.75697E-09
1177.21704	2.75690E-09
1177.34155	2.75685E-09
1177.46594	2.75681E-09
1177.59045	2.75677E-09
1177.71484	2.75675E-09
1177.83936	2.75673E-09
1177.96375	2.75672E-09
1178.08826	2.75672E-09
1178.21277	2.75673E-09
1178.33716	2.75675E-09
1178.46167	2.75677E-09
1178.58606	2.75680E-09
1178.71057	2.75684E-09
1178.83496	2.75689E-09
1178.95947	2.75694E-09
1179.08386	2.75700E-09
1179.20837	2.75706E-09
1179.33276	2.75713E-09
1179.45728	2.75721E-09
1179.58167	2.75728E-09
1179.70618	2.75737E-09
1179.83057	2.75745E-09
1179.95508	2.75754E-09
1180.07959	2.75764E-09
1180.20398	2.75773E-09
1180.32849	2.75783E-09
1180.45288	2.75793E-09
1180.57739	2.75803E-09
1180.70178	2.75813E-09
1180.82629	2.75824E-09
1180.95068	2.75834E-09
1181.07520	2.75844E-09
1181.19959	2.75855E-09
1181.32410	2.75865E-09
1181.44849	2.75875E-09
1181.57300	2.75885E-09
1181.69739	2.75895E-09
1181.82190	2.75905E-09
1181.94641	2.75914E-09
1182.07080	2.75924E-09
1182.19531	2.75932E-09
1182.31970	2.75941E-09
1182.44421	2.75949E-09
1182.56860	2.75956E-09
1182.69312	2.75964E-09
1182.81751	2.75970E-09
1182.94202	2.75976E-09
1183.06641	2.75982E-09
1183.19092	2.75987E-09
1183.31531	2.75992E-09
1183.43982	2.75996E-09
1183.56421	2.76000E-09
1183.68872	2.76002E-09
1183.81323	2.76005E-09
1183.93762	2.76006E-09
1184.06213	2.76008E-09
1184.18652	2.76008E-09
1184.31104	2.76007E-09
1184.43543	2.76006E-09
1184.55994	2.76005E-09
1184.68433	2.76002E-09
1184.80884	2.75999E-09
1184.93323	2.75995E-09
1185.05774	2.75991E-09
1185.18213	2.75985E-09
1185.30664	2.75980E-09
1185.43103	2.75973E-09
1185.55554	2.75966E-09
1185.68005	2.75958E-09
1185.80444	2.75949E-09
1185.92896	2.75940E-09
1186.05335	2.75930E-09
1186.17786	2.75919E-09
1186.30225	2.75908E-09
1186.42676	2.75896E-09
1186.55115	2.75884E-09
1186.67566	2.75871E-09
1186.80005	2.75857E-09
1186.92456	2.75843E-09
1187.04895	2.75829E-09
1187.17346	2.75814E-09
1187.29785	2.75799E-09
1187.42236	2.75783E-09
1187.54675	2.75767E-09
1187.67127	2.75750E-09
1187.79578	2.75733E-09
1187.92017	2.75716E-09
1188.04468	2.75698E-09
1188.16907	2.75681E-09
1188.29358	2.75663E-09
1188.41797	2.75644E-09
1188.54248	2.75626E-09
1188.66687	2.75607E-09
1188.79138	2.75589E-09
1188.91577	2.75570E-09
1189.04028	2.75551E-09
1189.16467	2.75532E-09
1189.28919	2.75513E-09
1189.41357	2.75495E-09
1189.53809	2.75476E-09
1189.66260	2.75457E-09
1189.78699	2.75439E-09
1189.91150	2.75420E-09
1190.03589	2.75402E-09
1190.16040	2.75384E-09
1190.28479	2.75366E-09
1190.40930	2.75349E-09
1190.53369	2.75332E-09
1190.65820	2.75315E-09
1190.78259	2.75298E-09
1190.90710	2.75282E-09
1191.03149	2.75266E-09
1191.15601	2.75251E-09
1191.28040	2.75236E-09
1191.40491	2.75221E-09
1191.52942	2.75207E-09
1191.65381	2.75194E-09
1191.77832	2.75180E-09
1191.90271	2.75168E-09
1192.02722	2.75156E-09
1192.15161	2.75144E-09
1192.27612	2.75133E-09
1192.40051	2.75123E-09
1192.52502	2.75113E-09
1192.64941	2.75103E-09
1192.77393	2.75095E-09
1192.89832	2.75087E-09
1193.02283	2.75079E-09
1193.14722	2.75072E-09
1193.27173	2.75066E-09
1193.39624	2.75060E-09
1193.52063	2.75055E-09
1193.64514	2.75051E-09
1193.76953	2.75047E-09
1193.89404	2.75043E-09
1194.01843	2.75041E-09
1194.14294	2.75038E-09
1194.26733	2.75037E-09
1194.39185	2.75036E-09
1194.51624	2.75035E-09
1194.64075	2.75035E-09
1194.76514	2.75036E-09
1194.88965	2.75037E-09
1195.01404	2.75039E-09
1195.13855	2.75041E-09
1195.26306	2.75043E-09
1195.38745	2.75046E-09
1195.51196	2.75050E-09
1195.63635	2.75054E-09
1195.76086	2.75059E-09
1195.88525	2.75063E-09
1196.00977	2.75069E-09
1196.13416	2.75074E-09
1196.25867	2.75080E-09
1196.38306	2.75087E-09
1196.50757	2.75093E-09
1196.63196	2.75100E-09
1196.75647	2.75107E-09
1196.88086	2.75115E-09
1197.00537	2.75122E-09
1197.12988	2.75130E-09
1197.25427	2.75138E-09
1197.37878	2.75147E-09
1197.50317	2.75155E-09
1197.62769	2.75164E-09
1197.75208	2.75173E-09
1197.87659	2.75182E-09
1198.00098	2.75191E-09
1198.12549	2.75200E-09
1198.24988	2.75209E-09
1198.37439	2.75218E-09
1198.49878	2.75227E-09
1198.62329	2.75236E-09
1198.74768	2.75245E-09
1198.87219	2.75254E-09
1198.99670	2.75263E-09
1199.12109	2.75272E-09
1199.24561	2.75281E-09
1199.37000	2.75290E-09
1199.49451	2.75299E-09
1199.61890	2.75307E-09
1199.74341	2.75316E-09
1199.86780	2.75324E-09
1199.99231	2.75332E-09
1200.11670	2.75340E-09
1200.24121	2.75348E-09
1200.36560	2.75356E-09
1200.49011	2.75364E-09
1200.61450	2.75371E-09
1200.73901	2.75378E-09
1200.86353	2.75385E-09
1200.98792	2.75392E-09
1201.11243	2.75399E-09
1201.23682	2.75406E-09
1201.36133	2.75412E-09
1201.48572	2.75418E-09
1201.61023	2.75424E-09
1201.73462	2.75430E-09
1201.85913	2.75436E-09
1201.98352	2.75441E-09
1202.10803	2.75447E-09
1202.23242	2.75452E-09
1202.35693	2.75457E-09
1202.48132	2.75462E-09
1202.60584	2.75466E-09
1202.73035	2.75471E-09
1202.85474	2.75475E-09
1202.97925	2.75480E-09
1203.10364	2.75484E-09
1203.22815	2.75488E-09
1203.35254	2.75492E-09
1203.47705	2.75496E-09
1203.60144	2.75500E-09
1203.72595	2.75504E-09
1203.85034	2.75507E-09
1203.97485	2.75511E-09
1204.09924	2.75515E-09
1204.22376	2.75519E-09
1204.34815	2.75522E-09
1204.47266	2.75526E-09
1204.59717	2.75530E-09
1204.72156	2.75534E-09
1204.84607	2.75538E-09
1204.97046	2.75542E-09
1205.09497	2.75546E-09
1205.21936	2.75550E-09
1205.34387	2.75554E-09
1205.46826	2.75558E-09
1205.59277	2.75563E-09
1205.71716	2.75567E-09
1205.84168	2.75572E-09
1205.96606	2.75577E-09
1206.09058	2.75582E-09
1206.21497	2.75587E-09
1206.33948	2.75593E-09
1206.46399	2.75598E-09
1206.58838	2.75604E-09
1206.71289	2.75610E-09
1206.83728	2.75616E-09
1206.96179	2.75623E-09
1207.08618	2.75629E-09
1207.21069	2.75636E-09
1207.33508	2.75643E-09
1207.45960	2.75650E-09
1207.58398	2.75658E-09
1207.70850	2.75666E-09
1207.83289	2.75674E-09
1207.95740	2.75682E-09
1208.08179	2.75691E-09
1208.20630	2.75700E-09
1208.33069	2.75709E-09
1208.45520	2.75718E-09
1208.57971	2.75728E-09
1208.70410	2.75737E-09
1208.82861	2.75747E-09
1208.95300	2.75758E-09
1209.07752	2.75768E-09
1209.20190	2.75779E-09
1209.32642	2.75790E-09
1209.45081	2.75801E-09
1209.57532	2.75813E-09
1209.69971	2.75824E-09
1209.82422	2.75836E-09
1209.94861	2.75848E-09
1210.07312	2.75860E-09
1210.19751	2.75872E-09
1210.32202	2.75885E-09
1210.44653	2.75897E-09
1210.57092	2.75910E-09
1210.69544	2.75923E-09
1210.81982	2.75936E-09
1210.94434	2.75949E-09
1211.06873	2.75963E-09
1211.19324	2.75976E-09
1211.31763	2.75990E-09
1211.44214	2.76003E-09
1211.56653	2.76016E-09
1211.69104	2.76030E-09
1211.81543	2.76043E-09
1211.93994	2.76057E-09
1212.06433	2.76071E-09
1212.18884	2.76085E-09
1212.31335	2.76098E-09
1212.43774	2.76112E-09
1212.56226	2.76125E-09
1212.68665	2.76139E-09
1212.81116	2.76152E-09
1212.93555	2.76166E-09
1213.06006	2.76179E-09
1213.18445	2.76192E-09
1213.30896	2.76205E-09
1213.43335	2.76219E-09
1213.55786	2.76231E-09
1213.68225	2.76244E-09
1213.80676	2.76257E-09
1213.93115	2.76270E-09
1214.05566	2.76282E-09
1214.18018	2.76294E-09
1214.30457	2.76307E-09
1214.42908	2.76319E-09
1214.55347	2.76331E-09
1214.67798	2.76343E-09
1214.80237	2.76354E-09
1214.92688	2.76366E-09
1215.05127	2.76377E-09
1215.17578	2.76388E-09
1215.30017	2.76399E-09
1215.42468	2.76410E-09
1215.54907	2.76421E-09
1215.67358	2.76431E-09
1215.79797	2.76441E-09
1215.92249	2.76451E-09
1216.04700	2.76461E-09
1216.17139	2.76471E-09
1216.29590	2.76481E-09
1216.42029	2.76490E-09
1216.54480	2.76500E-09
1216.66919	2.76509E-09
1216.79370	2.76519E-09
1216.91809	2.76528E-09
1217.04260	2.76537E-09
1217.16699	2.76546E-09
1217.29150	2.76555E-09
1217.41589	2.76564E-09
1217.54041	2.76573E-09
1217.66480	2.76582E-09
1217.78931	2.76591E-09
1217.91382	2.76599E-09
1218.03821	2.76608E-09
1218.16272	2.76617E-09
1218.28711	2.76626E-09
1218.41162	2.76635E-09
1218.53601	2.76644E-09
1218.66052	2.76653E-09
1218.78491	2.76662E-09
1218.90942	2.76671E-09
1219.03381	2.76680E-09
1219.15833	2.76690E-09
1219.28272	2.76699E-09
1219.40723	2.76709E-09
1219.53162	2.76719E-09
1219.65613	2.76729E-09
1219.78064	2.76740E-09
1219.90503	2.76750E-09
1220.02954	2.76761E-09
1220.15393	2.76772E-09
1220.27844	2.76783E-09
1220.40283	2.76794E-09
1220.52734	2.76806E-09
1220.65173	2.76818E-09
1220.77625	2.76830E-09
1220.90064	2.76842E-09
1221.02515	2.76855E-09
1221.14954	2.76868E-09
1221.27405	2.76882E-09
1221.39844	2.76896E-09
1221.52295	2.76910E-09
1221.64746	2.76925E-09
1221.77185	2.76940E-09
1221.89636	2.76955E-09
1222.02075	2.76971E-09
1222.14526	2.76987E-09
1222.26965	2.77003E-09
1222.39417	2.77020E-09
1222.51856	2.77037E-09
1222.64307	2.77055E-09
1222.76746	2.77072E-09
1222.89197	2.77091E-09
1223.01636	2.77109E-09
1223.14087	2.77129E-09
1223.26526	2.77148E-09
1223.38977	2.77168E-09
1223.51428	2.77188E-09
1223.63867	2.77209E-09
1223.76318	2.77230E-09
1223.88757	2.77251E-09
1224.01209	2.77273E-09
1224.13648	2.77295E-09
1224.26099	2.77318E-09
1224.38538	2.77341E-09
1224.50989	2.77364E-09
1224.63428	2.77387E-09
1224.75879	2.77411E-09
1224.88318	2.77435E-09
1225.00769	2.77460E-09
1225.13208	2.77484E-09
1225.25659	2.77509E-09
1225.38110	2.77534E-09
1225.50549	2.77560E-09
1225.63001	2.77585E-09
1225.75440	2.77611E-09
1225.87891	2.77637E-09
1226.00330	2.77664E-09
1226.12781	2.77690E-09
1226.25220	2.77717E-09
1226.37671	2.77744E-09
1226.50110	2.77771E-09
1226.62561	2.77798E-09
1226.75000	2.77825E-09
1226.87451	2.77853E-09
1226.99890	2.77880E-09
1227.12341	2.77908E-09
1227.24793	2.77935E-09
1227.37231	2.77963E-09
1227.49683	2.77990E-09
1227.62122	2.78018E-09
1227.74573	2.78046E-09
1227.87012	2.78073E-09
1227.99463	2.78101E-09
1228.11902	2.78128E-09
1228.24353	2.78156E-09
1228.36792	2.78183E-09
1228.49243	2.78210E-09
1228.61682	2.78238E-09
1228.74133	2.78265E-09
1228.86572	2.78292E-09
1228.99023	2.78319E-09
1229.11475	2.78346E-09
1229.23914	2.78372E-09
1229.36365	2.78399E-09
1229.48804	2.78425E-09
1229.61255	2.78452E-09
1229.73694	2.78478E-09
1229.86145	2.78504E-09
1229.98584	2.78530E-09
1230.11035	2.78555E-09
1230.23474	2.78581E-09
1230.35925	2.78606E-09
1230.48364	2.78631E-09
1230.60815	2.78656E-09
1230.73254	2.78681E-09
1230.85706	2.78706E-09
1230.98145	2.78730E-09
1231.10596	2.78755E-09
1231.23047	2.78779E-09
1231.35486	2.78803E-09
1231.47937	2.78826E-09
1231.60376	2.78850E-09
1231.72827	2.78873E-09
1231.85266	2.78897E-09
1231.97717	2.78920E-09
1232.10156	2.78943E-09
1232.22607	2.78966E-09
1232.35046	2.78989E-09
1232.47498	2.79012E-09
1232.59937	2.79034E-09
1232.72388	2.79056E-09
1232.84827	2.79079E-09
1232.97278	2.79101E-09
1233.09729	2.79124E-09
1233.22168	2.79146E-09
1233.34619	2.79169E-09
1233.47058	2.79191E-09
1233.59509	2.79213E-09
1233.71948	2.79236E-09
1233.84399	2.79258E-09
1233.96838	2.79281E-09
1234.09290	2.79303E-09
1234.21729	2.79326E-09
1234.34180	2.79349E-09
1234.46619	2.79372E-09
1234.59070	2.79395E-09
1234.71509	2.79418E-09
1234.83960	2.79441E-09
1234.96411	2.79465E-09
1235.08850	2.79488E-09
1235.21301	2.79512E-09
1235.33740	2.79536E-09
1235.46191	2.79560E-09
1235.58630	2.79584E-09
1235.71082	2.79609E-09
1235.83521	2.79634E-09
1235.95972	2.79659E-09
1236.08411	2.79685E-09
1236.20862	2.79710E-09
1236.33301	2.79736E-09
1236.45752	2.79763E-09
1236.58191	2.79789E-09
1236.70642	2.79816E-09
1236.83093	2.79844E-09
1236.95532	2.79871E-09
1237.07983	2.79899E-09
1237.20422	2.79928E-09
1237.32874	2.79956E-09
1237.45313	2.79985E-09
1237.57764	2.80015E-09
1237.70203	2.80045E-09
1237.82654	2.80075E-09
1237.95093	2.80106E-09
1238.07544	2.80137E-09
1238.19983	2.80168E-09
1238.32434	2.80200E-09
1238.44873	2.80232E-09
1238.57324	2.80264E-09
1238.69775	2.80297E-09
1238.82214	2.80330E-09
1238.94666	2.80364E-09
1239.07105	2.80397E-09
1239.19556	2.80432E-09
1239.31995	2.80466E-09
1239.44446	2.80501E-09
1239.56885	2.80537E-09
1239.69336	2.80572E-09
1239.81775	2.80608E-09
1239.94226	2.80644E-09
1240.06665	2.80681E-09
1240.19116	2.80717E-09
1240.31555	2.80754E-09
1240.44006	2.80792E-09
1240.56458	2.80829E-09
1240.68897	2.80867E-09
1240.81348	2.80905E-09
1240.93787	2.80943E-09
1241.06238	2.80982E-09
1241.18677	2.81020E-09
1241.31128	2.81059E-09
1241.43567	2.81098E-09
1241.56018	2.81137E-09
1241.68457	2.81176E-09
1241.80908	2.81215E-09
1241.93347	2.81255E-09
1242.05798	2.81294E-09
1242.18237	2.81334E-09
1242.30689	2.81373E-09
1242.43140	2.81412E-09
1242.55579	2.81452E-09
1242.68030	2.81491E-09
1242.80469	2.81531E-09
1242.92920	2.81570E-09
1243.05359	2.81610E-09
1243.17810	2.81649E-09
1243.30249	2.81688E-09
1243.42700	2.81727E-09
1243.55139	2.81766E-09
1243.67590	2.81805E-09
1243.80029	2.81844E-09
1243.92481	2.81883E-09
1244.04919	2.81922E-09
1244.17371	2.81960E-09
1244.29822	2.81999E-09
1244.42261	2.82037E-09
1244.54712	2.82075E-09
1244.67151	2.82113E-09
1244.79602	2.82150E-09
1244.92041	2.82188E-09
1245.04492	2.82225E-09
1245.16931	2.82262E-09
1245.29382	2.82299E-09
1245.41821	2.82336E-09
1245.54273	2.82372E-09
1245.66711	2.82408E-09
1245.79163	2.82444E-09
1245.91602	2.82480E-09
1246.04053	2.82515E-09
1246.16504	2.82551E-09
1246.28943	2.82586E-09
1246.41394	2.82622E-09
1246.53833	2.82656E-09
1246.66284	2.82691E-09
1246.78723	2.82726E-09
1246.91174	2.82760E-09
1247.03613	2.82794E-09
1247.16065	2.82828E-09
1247.28503	2.82862E-09
1247.40955	2.82896E-09
1247.53394	2.82930E-09
1247.65845	2.82963E-09
1247.78284	2.82996E-09
1247.90735	2.83030E-09
1248.03186	2.83063E-09
1248.15625	2.83096E-09
1248.28076	2.83129E-09
1248.40515	2.83162E-09
1248.52966	2.83195E-09
1248.65405	2.83229E-09
1248.77856	2.83261E-09
1248.90295	2.83295E-09
1249.02747	2.83328E-09
1249.15186	2.83361E-09
1249.27637	2.83394E-09
1249.40076	2.83428E-09
1249.52527	2.83461E-09
1249.64966	2.83494E-09
1249.77417	2.83528E-09
1249.89868	2.83562E-09
1250.02307	2.83596E-09
1250.14758	2.83630E-09
1250.27197	2.83664E-09
1250.39648	2.83699E-09
1250.52087	2.83734E-09
1250.64539	2.83768E-09
1250.76978	2.83804E-09
1250.89429	2.83839E-09
1251.01868	2.83875E-09
1251.14319	2.83911E-09
1251.26758	2.83947E-09
1251.39209	2.83984E-09
1251.51648	2.84021E-09
1251.64099	2.84059E-09
1251.76550	2.84096E-09
1251.88989	2.84135E-09
1252.01440	2.84173E-09
1252.13879	2.84212E-09
1252.26331	2.84251E-09
1252.38770	2.84291E-09
1252.51221	2.84331E-09
1252.63660	2.84371E-09
1252.76111	2.84412E-09
1252.88550	2.84453E-09
1253.01001	2.84495E-09
1253.13440	2.84537E-09
1253.25891	2.84580E-09
1253.38330	2.84622E-09
1253.50781	2.84666E-09
1253.63220	2.84709E-09
1253.75671	2.84753E-09
1253.88123	2.84797E-09
1254.00562	2.84842E-09
1254.13013	2.84887E-09
1254.25452	2.84933E-09
1254.37903	2.84978E-09
1254.50342	2.85024E-09
1254.62793	2.85071E-09
1254.75232	2.85118E-09
1254.87683	2.85165E-09
1255.00122	2.85212E-09
1255.12573	2.85260E-09
1255.25012	2.85307E-09
1255.37463	2.85355E-09
1255.49902	2.85404E-09
1255.62354	2.85452E-09
1255.74805	2.85501E-09
1255.87244	2.85550E-09
1255.99695	2.85599E-09
1256.12134	2.85648E-09
1256.24585	2.85697E-09
1256.37024	2.85747E-09
1256.49475	2.85796E-09
1256.61914	2.85845E-09
1256.74365	2.85895E-09
1256.86804	2.85944E-09
1256.99255	2.85994E-09
1257.11694	2.86043E-09
1257.24146	2.86093E-09
1257.36585	2.86142E-09
1257.49036	2.86191E-09
1257.61487	2.86241E-09
1257.73926	2.86289E-09
1257.86377	2.86338E-09
1257.98816	2.86387E-09
1258.11267	2.86435E-09
1258.23706	2.86483E-09
1258.36157	2.86531E-09
1258.48596	2.86578E-09
1258.61047	2.86626E-09
1258.73486	2.86672E-09
1258.85938	2.86719E-09
1258.98377	2.86765E-09
1259.10828	2.86811E-09
1259.23267	2.86856E-09
1259.35718	2.86901E-09
1259.48169	2.86946E-09
1259.60608	2.86990E-09
1259.73059	2.87034E-09
1259.85498	2.87076E-09
1259.97949	2.87119E-09
1260.10388	2.87161E-09
1260.22839	2.87203E-09
1260.35278	2.87244E-09
1260.47730	2.87284E-09
1260.60169	2.87324E-09
1260.72620	2.87364E-09
1260.85059	2.87402E-09
1260.97510	2.87440E-09
1261.09949	2.87478E-09
1261.22400	2.87515E-09
1261.34851	2.87551E-09
1261.47290	2.87587E-09
1261.59741	2.87622E-09
1261.72180	2.87657E-09
1261.84631	2.87691E-09
1261.97070	2.87724E-09
1262.09522	2.87757E-09
1262.21960	2.87789E-09
1262.34412	2.87821E-09
1262.46851	2.87852E-09
1262.59302	2.87882E-09
1262.71741	2.87913E-09
1262.84192	2.87942E-09
1262.96631	2.87971E-09
1263.09082	2.87999E-09
1263.21533	2.88027E-09
1263.33972	2.88054E-09
1263.46423	2.88081E-09
1263.58862	2.88107E-09
1263.71314	2.88133E-09
1263.83752	2.88158E-09
1263.96204	2.88183E-09
1264.08643	2.88208E-09
1264.21094	2.88232E-09
1264.33533	2.88256E-09
1264.45984	2.88279E-09
1264.58423	2.88302E-09
1264.70874	2.88325E-09
1264.83313	2.88347E-09
1264.95764	2.88369E-09
1265.08215	2.88391E-09
1265.20654	2.88413E-09
1265.33106	2.88434E-09
1265.45544	2.88455E-09
1265.57996	2.88476E-09
1265.70435	2.88497E-09
1265.82886	2.88518E-09
1265.95325	2.88538E-09
1266.07776	2.88558E-09
1266.20215	2.88579E-09
1266.32666	2.88599E-09
1266.45105	2.88619E-09
1266.57556	2.88639E-09
1266.69995	2.88659E-09
1266.82446	2.88679E-09
1266.94898	2.88699E-09
1267.07336	2.88719E-09
1267.19788	2.88739E-09
1267.32227	2.88759E-09
1267.44678	2.88779E-09
1267.57117	2.88799E-09
1267.69568	2.88820E-09
1267.82007	2.88840E-09
1267.94458	2.88861E-09
1268.06897	2.88881E-09
1268.19348	2.88902E-09
1268.31787	2.88923E-09
1268.44238	2.88945E-09
1268.56677	2.88966E-09
1268.69128	2.88987E-09
1268.81580	2.89009E-09
1268.94019	2.89031E-09
1269.06470	2.89053E-09
1269.18909	2.89075E-09
1269.31360	2.89098E-09
1269.43799	2.89120E-09
1269.56250	2.89143E-09
1269.68689	2.89166E-09
1269.81140	2.89189E-09
1269.93579	2.89212E-09
1270.06030	2.89236E-09
1270.18469	2.89260E-09
1270.30920	2.89283E-09
1270.43359	2.89307E-09
1270.55811	2.89332E-09
1270.68262	2.89356E-09
1270.80701	2.89380E-09
1270.93152	2.89405E-09
1271.05591	2.89429E-09
1271.18042	2.89454E-09
1271.30481	2.89479E-09
1271.42932	2.89504E-09
1271.55371	2.89529E-09
1271.67822	2.89554E-09
1271.80261	2.89580E-09
1271.92712	2.89605E-09
1272.05151	2.89630E-09
1272.17603	2.89655E-09
1272.30042	2.89681E-09
1272.42493	2.89706E-09
1272.54944	2.89731E-09
1272.67383	2.89756E-09
1272.79834	2.89781E-09
1272.92273	2.89806E-09
1273.04724	2.89831E-09
1273.17163	2.89856E-09
1273.29614	2.89880E-09
1273.42053	2.89905E-09
1273.54504	2.89929E-09
1273.66943	2.89953E-09
1273.79395	2.89977E-09
1273.91834	2.90001E-09
1274.04285	2.90024E-09
1274.16724	2.90047E-09
1274.29175	2.90070E-09
1274.41626	2.90093E-09
1274.54065	2.90115E-09
1274.66516	2.90137E-09
1274.78955	2.90159E-09
1274.91406	2.90181E-09
1275.03845	2.90202E-09
1275.16296	2.90223E-09
1275.28735	2.90243E-09
1275.41187	2.90264E-09
1275.53626	2.90283E-09
1275.66077	2.90303E-09
1275.78516	2.90322E-09
1275.90967	2.90340E-09
1276.03406	2.90359E-09
1276.15857	2.90377E-09
1276.28296	2.90395E-09
1276.40747	2.90412E-09
1276.53198	2.90429E-09
1276.65637	2.90446E-09
1276.78088	2.90462E-09
1276.90527	2.90478E-09
1277.02979	2.90493E-09
1277.15418	2.90509E-09
1277.27869	2.90524E-09
1277.40308	2.90538E-09
1277.52759	2.90553E-09
1277.65198	2.90567E-09
1277.77649	2.90580E-09
1277.90088	2.90594E-09
1278.02539	2.90607E-09
1278.14978	2.90620E-09
1278.27429	2.90632E-09
1278.39880	2.90645E-09
1278.52319	2.90657E-09
1278.64771	2.90669E-09
1278.77210	2.90681E-09
1278.89661	2.90693E-09
1279.02100	2.90705E-09
1279.14551	2.90717E-09
1279.26990	2.90728E-09
1279.39441	2.90740E-09
1279.51880	2.90751E-09
1279.64331	2.90763E-09
1279.76770	2.90774E-09
1279.89221	2.90786E-09
1280.01660	2.90797E-09
1280.14111	2.90809E-09
1280.26563	2.90821E-09
1280.39002	2.90833E-09
1280.51453	2.90845E-09
1280.63892	2.90857E-09
1280.76343	2.90870E-09
1280.88782	2.90883E-09
1281.01233	2.90896E-09
1281.13672	2.90909E-09
1281.26123	2.90923E-09
1281.38562	2.90937E-09
1281.51013	2.90951E-09
1281.63452	2.90966E-09
1281.75903	2.90981E-09
1281.88342	2.90997E-09
1282.00794	2.91013E-09
1282.13245	2.91030E-09
1282.25684	2.91047E-09
1282.38135	2.91064E-09
1282.50574	2.91083E-09
1282.63025	2.91102E-09
1282.75464	2.91121E-09
1282.87915	2.91141E-09
1283.00354	2.91161E-09
1283.12805	2.91182E-09
1283.25244	2.91204E-09
1283.37695	2.91226E-09
1283.50134	2.91249E-09
1283.62585	2.91273E-09
1283.75024	2.91297E-09
1283.87476	2.91322E-09
1283.99927	2.91348E-09
1284.12366	2.91374E-09
1284.24817	2.91401E-09
1284.37256	2.91429E-09
1284.49707	2.91457E-09
1284.62146	2.91486E-09
1284.74597	2.91516E-09
1284.87036	2.91547E-09
1284.99487	2.91578E-09
1285.11926	2.91610E-09
1285.24377	2.91643E-09
1285.36816	2.91676E-09
1285.49268	2.91710E-09
1285.61707	2.91744E-09
1285.74158	2.91780E-09
1285.86609	2.91816E-09
1285.99048	2.91852E-09
1286.11499	2.91889E-09
1286.23938	2.91926E-09
1286.36389	2.91964E-09
1286.48828	2.92003E-09
1286.61279	2.92043E-09
1286.73718	2.92082E-09
1286.86169	2.92122E-09
1286.98608	2.92163E-09
1287.11060	2.92204E-09
1287.23499	2.92246E-09
1287.35950	2.92287E-09
1287.48389	2.92329E-09
1287.60840	2.92372E-09
1287.73291	2.92415E-09
1287.85730	2.92458E-09
1287.98181	2.92501E-09
1288.10620	2.92545E-09
1288.23071	2.92588E-09
1288.35510	2.92632E-09
1288.47961	2.92677E-09
1288.60400	2.92721E-09
1288.72852	2.92765E-09
1288.85291	2.92809E-09
1288.97742	2.92854E-09
1289.10181	2.92898E-09
1289.22632	2.92943E-09
1289.35071	2.92987E-09
1289.47522	2.93031E-09
1289.59973	2.93075E-09
1289.72412	2.93119E-09
1289.84863	2.93163E-09
1289.97302	2.93206E-09
1290.09753	2.93249E-09
1290.22192	2.93293E-09
1290.34644	2.93335E-09
1290.47083	2.93377E-09
1290.59534	2.93419E-09
1290.71973	2.93461E-09
1290.84424	2.93502E-09
1290.96863	2.93543E-09
1291.09314	2.93584E-09
1291.21753	2.93624E-09
1291.34204	2.93663E-09
1291.46655	2.93702E-09
1291.59094	2.93741E-09
1291.71545	2.93779E-09
1291.83984	2.93817E-09
1291.96436	2.93854E-09
1292.08875	2.93890E-09
1292.21326	2.93926E-09
1292.33765	2.93961E-09
1292.46216	2.93997E-09
1292.58655	2.94031E-09
1292.71106	2.94064E-09
1292.83545	2.94097E-09
1292.95996	2.94130E-09
1293.08435	2.94162E-09
1293.20886	2.94193E-09
1293.33337	2.94224E-09
1293.45776	2.94254E-09
1293.58228	2.94284E-09
1293.70667	2.94313E-09
1293.83118	2.94342E-09
1293.95557	2.94370E-09
1294.08008	2.94398E-09
1294.20447	2.94425E-09
1294.32898	2.94451E-09
1294.45337	2.94477E-09
1294.57788	2.94503E-09
1294.70227	2.94528E-09
1294.82678	2.94553E-09
1294.95117	2.94577E-09
1295.07568	2.94601E-09
1295.20020	2.94625E-09
1295.32459	2.94648E-09
1295.44910	2.94671E-09
1295.57349	2.94694E-09
1295.69800	2.94716E-09
1295.82239	2.94738E-09
1295.94690	2.94760E-09
1296.07129	2.94782E-09
1296.19580	2.94804E-09
1296.32019	2.94825E-09
1296.44470	2.94846E-09
1296.56909	2.94868E-09
1296.69360	2.94889E-09
1296.81799	2.94910E-09
1296.94251	2.94931E-09
1297.06690	2.94953E-09
1297.19141	2.94974E-09
1297.31592	2.94996E-09
1297.44031	2.95017E-09
1297.56482	2.95039E-09
1297.68921	2.95061E-09
1297.81372	2.95083E-09
1297.93811	2.95105E-09
1298.06262	2.95128E-09
1298.18701	2.95151E-09
1298.31152	2.95174E-09
1298.43591	2.95197E-09
1298.56043	2.95221E-09
1298.68481	2.95246E-09
1298.80933	2.95271E-09
1298.93372	2.95296E-09
1299.05823	2.95322E-09
1299.18274	2.95348E-09
1299.30713	2.95375E-09
1299.43164	2.95402E-09
1299.55603	2.95429E-09
1299.68054	2.95458E-09
1299.80493	2.95487E-09
1299.92944	2.95516E-09
1300.05383	2.95546E-09
1300.17835	2.95577E-09
1300.30273	2.95609E-09
1300.42725	2.95641E-09
1300.55164	2.95674E-09
1300.67615	2.95707E-09
1300.80054	2.95741E-09
1300.92505	2.95776E-09
1301.04956	2.95811E-09
1301.17395	2.95847E-09
1301.29846	2.95884E-09
1301.42285	2.95921E-09
1301.54736	2.95959E-09
1301.67175	2.95998E-09
1301.79627	2.96037E-09
1301.92065	2.96078E-09
1302.04517	2.96119E-09
1302.16956	2.96160E-09
1302.29407	2.96202E-09
1302.41846	2.96244E-09
1302.54297	2.96287E-09
1302.66736	2.96331E-09
1302.79187	2.96376E-09
1302.91638	2.96421E-09
1303.04077	2.96467E-09
1303.16528	2.96513E-09
1303.28967	2.96559E-09
1303.41419	2.96607E-09
1303.53857	2.96654E-09
1303.66309	2.96702E-09
1303.78748	2.96751E-09
1303.91199	2.96800E-09
1304.03638	2.96849E-09
1304.16089	2.96899E-09
1304.28528	2.96949E-09
1304.40979	2.96999E-09
1304.53418	2.97050E-09
1304.65869	2.97101E-09
1304.78320	2.97152E-09
1304.90759	2.97203E-09
1305.03210	2.97255E-09
1305.15649	2.97307E-09
1305.28101	2.97358E-09
1305.40540	2.97410E-09
1305.52991	2.97462E-09
1305.65430	2.97514E-09
1305.77881	2.97566E-09
1305.90320	2.97618E-09
1306.02771	2.97670E-09
1306.15210	2.97722E-09
1306.27661	2.97774E-09
1306.40100	2.97825E-09
1306.52551	2.97877E-09
1306.65002	2.97928E-09
1306.77441	2.97979E-09
1306.89893	2.98030E-09
1307.02332	2.98081E-09
1307.14783	2.98131E-09
1307.27222	2.98181E-09
1307.39673	2.98231E-09
1307.52112	2.98280E-09
1307.64563	2.98329E-09
1307.77002	2.98377E-09
1307.89453	2.98426E-09
1308.01892	2.98473E-09
1308.14343	2.98521E-09
1308.26782	2.98567E-09
1308.39233	2.98614E-09
1308.51685	2.98660E-09
1308.64124	2.98705E-09
1308.76575	2.98750E-09
1308.89014	2.98794E-09
1309.01465	2.98838E-09
1309.13904	2.98881E-09
1309.26355	2.98923E-09
1309.38794	2.98965E-09
1309.51245	2.99007E-09
1309.63684	2.99047E-09
1309.76135	2.99088E-09
1309.88574	2.99127E-09
1310.01025	2.99166E-09
1310.13464	2.99204E-09
1310.25916	2.99242E-09
1310.38367	2.99279E-09
1310.50806	2.99315E-09
1310.63257	2.99351E-09
1310.75696	2.99387E-09
1310.88147	2.99421E-09
1311.00586	2.99455E-09
1311.13037	2.99489E-09
1311.25476	2.99522E-09
1311.37927	2.99554E-09
1311.50366	2.99586E-09
1311.62817	2.99617E-09
1311.75256	2.99648E-09
1311.87708	2.99678E-09
1312.00147	2.99707E-09
1312.12598	2.99736E-09
1312.25049	2.99765E-09
1312.37488	2.99793E-09
1312.49939	2.99820E-09
1312.62378	2.99847E-09
1312.74829	2.99874E-09
1312.87268	2.99900E-09
1312.99719	2.99926E-09
1313.12158	2.99951E-09
1313.24609	2.99976E-09
1313.37048	3.00000E-09
1313.49500	3.00024E-09
1313.61939	3.00048E-09
1313.74390	3.00072E-09
1313.86829	3.00095E-09
1313.99280	3.00118E-09
1314.11731	3.00141E-09
1314.24170	3.00164E-09
1314.36621	3.00186E-09
1314.49060	3.00208E-09
1314.61511	3.00230E-09
1314.73950	3.00251E-09
1314.86401	3.00273E-09
1314.98840	3.00294E-09
1315.11292	3.00315E-09
1315.23731	3.00336E-09
1315.36182	3.00356E-09
1315.48621	3.00377E-09
1315.61072	3.00398E-09
1315.73511	3.00419E-09
1315.85962	3.00439E-09
1315.98413	3.00460E-09
1316.10852	3.00480E-09
1316.23303	3.00501E-09
1316.35742	3.00521E-09
1316.48193	3.00541E-09
1316.60632	3.00562E-09
1316.73084	3.00582E-09
1316.85523	3.00603E-09
1316.97974	3.00623E-09
1317.10413	3.00643E-09
1317.22864	3.00664E-09
1317.35303	3.00684E-09
1317.47754	3.00705E-09
1317.60193	3.00725E-09
1317.72644	3.00746E-09
1317.85095	3.00767E-09
1317.97534	3.00788E-09
1318.09985	3.00808E-09
1318.22424	3.00829E-09
1318.34876	3.00850E-09
1318.47315	3.00871E-09
1318.59766	3.00892E-09
1318.72205	3.00913E-09
1318.84656	3.00934E-09
1318.97095	3.00956E-09
1319.09546	3.00977E-09
1319.21985	3.00998E-09
1319.34436	3.01020E-09
1319.46875	3.01041E-09
1319.59326	3.01062E-09
1319.71765	3.01084E-09
1319.84216	3.01105E-09
1319.96668	3.01127E-09
1320.09106	3.01149E-09
1320.21558	3.01170E-09
1320.33997	3.01192E-09
1320.46448	3.01214E-09
1320.58887	3.01236E-09
1320.71338	3.01257E-09
1320.83777	3.01279E-09
1320.96228	3.01301E-09
1321.08667	3.01323E-09
1321.21118	3.01345E-09
1321.33557	3.01366E-09
1321.46008	3.01388E-09
1321.58447	3.01410E-09
1321.70898	3.01432E-09
1321.83350	3.01454E-09
1321.95789	3.01475E-09
1322.08240	3.01497E-09
1322.20679	3.01519E-09
1322.33130	3.01540E-09
1322.45569	3.01562E-09
1322.58020	3.01584E-09
1322.70459	3.01605E-09
1322.82910	3.01626E-09
1322.95349	3.01648E-09
1323.07800	3.01669E-09
1323.20239	3.01690E-09
1323.32690	3.01712E-09
1323.45129	3.01733E-09
1323.57581	3.01754E-09
1323.70032	3.01775E-09
1323.82471	3.01797E-09
1323.94922	3.01818E-09
1324.07361	3.01839E-09
1324.19812	3.01860E-09
1324.32251	3.01881E-09
1324.44702	3.01902E-09
1324.57141	3.01924E-09
1324.69592	3.01945E-09
1324.82031	3.01966E-09
1324.94482	3.01987E-09
1325.06921	3.02008E-09
1325.19373	3.02029E-09
1325.31812	3.02051E-09
1325.44263	3.02072E-09
1325.56714	3.02093E-09
1325.69153	3.02115E-09
1325.81604	3.02136E-09
1325.94043	3.02158E-09
1326.06494	3.02179E-09
1326.18933	3.02201E-09
1326.31384	3.02223E-09
1326.43823	3.02245E-09
1326.56274	3.02267E-09
1326.68713	3.02289E-09
1326.81165	3.02312E-09
1326.93604	3.02334E-09
1327.06055	3.02357E-09
1327.18494	3.02380E-09
1327.30945	3.02403E-09
1327.43396	3.02426E-09
1327.55835	3.02449E-09
1327.68286	3.02473E-09
1327.80725	3.02497E-09
1327.93176	3.02521E-09
1328.05615	3.02546E-09
1328.18066	3.02571E-09
1328.30505	3.02596E-09
1328.42957	3.02621E-09
1328.55396	3.02647E-09
1328.67847	3.02673E-09
1328.80286	3.02700E-09
1328.92737	3.02727E-09
1329.05176	3.02754E-09
1329.17627	3.02781E-09
1329.30078	3.02809E-09
1329.42517	3.02837E-09
1329.54968	3.02866E-09
1329.67407	3.02895E-09
1329.79858	3.02925E-09
1329.92297	3.02955E-09
1330.04749	3.02985E-09
1330.17188	3.03016E-09
1330.29639	3.03047E-09
1330.42078	3.03079E-09
1330.54529	3.03111E-09
1330.66968	3.03144E-09
1330.79419	3.03177E-09
1330.91858	3.03211E-09
1331.04309	3.03245E-09
1331.16760	3.03280E-09
1331.29199	3.03315E-09
1331.41650	3.03350E-09
1331.54089	3.03387E-09
1331.66541	3.03423E-09
1331.78980	3.03460E-09
1331.91431	3.03498E-09
1332.03870	3.03536E-09
1332.16321	3.03574E-09
1332.28760	3.03613E-09
1332.41211	3.03652E-09
1332.53650	3.03692E-09
1332.66101	3.03733E-09
1332.78540	3.03774E-09
1332.90991	3.03815E-09
1333.03442	3.03857E-09
1333.15881	3.03899E-09
1333.28333	3.03942E-09
1333.40772	3.03985E-09
1333.53223	3.04028E-09
1333.65662	3.04072E-09
1333.78113	3.04116E-09
1333.90552	3.04161E-09
1334.03003	3.04207E-09
1334.15442	3.04252E-09
1334.27893	3.04298E-09
1334.40332	3.04345E-09
1334.52783	3.04391E-09
1334.65222	3.04438E-09
1334.77673	3.04486E-09
1334.90125	3.04533E-09
1335.02564	3.04581E-09
1335.15015	3.04630E-09
1335.27454	3.04678E-09
1335.39905	3.04727E-09
1335.52344	3.04776E-09
1335.64795	3.04826E-09
1335.77234	3.04876E-09
1335.89685	3.04926E-09
1336.02124	3.04976E-09
1336.14575	3.05027E-09
1336.27014	3.05077E-09
1336.39465	3.05128E-09
1336.51904	3.05179E-09
1336.64356	3.05230E-09
1336.76807	3.05281E-09
1336.89246	3.05333E-09
1337.01697	3.05385E-09
1337.14136	3.05436E-09
1337.26587	3.05488E-09
1337.39026	3.05540E-09
1337.51477	3.05593E-09
1337.63916	3.05645E-09
1337.76367	3.05697E-09
1337.88806	3.05750E-09
1338.01257	3.05802E-09
1338.13696	3.05854E-09
1338.26148	3.05907E-09
1338.38586	3.05959E-09
1338.51038	3.06012E-09
1338.63489	3.06064E-09
1338.75928	3.06117E-09
1338.88379	3.06169E-09
1339.00818	3.06222E-09
1339.13269	3.06275E-09
1339.25708	3.06327E-09
1339.38159	3.06380E-09
1339.50598	3.06432E-09
1339.63049	3.06485E-09
1339.75488	3.06537E-09
1339.87940	3.06589E-09
1340.00378	3.06642E-09
1340.12830	3.06694E-09
1340.25269	3.06746E-09
1340.37720	3.06798E-09
1340.50171	3.06850E-09
1340.62610	3.06902E-09
1340.75061	3.06954E-09
1340.87500	3.07006E-09
1340.99951	3.07058E-09
1341.12390	3.07109E-09
1341.24841	3.07161E-09
1341.37280	3.07212E-09
1341.49731	3.07263E-09
1341.62170	3.07315E-09
1341.74622	3.07366E-09
1341.87061	3.07417E-09
1341.99512	3.07467E-09
1342.11951	3.07518E-09
1342.24402	3.07569E-09
1342.36841	3.07620E-09
1342.49292	3.07670E-09
1342.61743	3.07720E-09
1342.74182	3.07770E-09
1342.86633	3.07820E-09
1342.99072	3.07870E-09
1343.11523	3.07919E-09
1343.23962	3.07969E-09
1343.36414	3.08018E-09
1343.48853	3.08067E-09
1343.61304	3.08116E-09
1343.73743	3.08165E-09
1343.86194	3.08213E-09
1343.98633	3.08261E-09
1344.11084	3.08309E-09
1344.23523	3.08357E-09
1344.35974	3.08405E-09
1344.48425	3.08452E-09
1344.60864	3.08500E-09
1344.73315	3.08546E-09
1344.85754	3.08593E-09
1344.98206	3.08639E-09
1345.10645	3.08686E-09
1345.23096	3.08731E-09
1345.35535	3.08777E-09
1345.47986	3.08823E-09
1345.60425	3.08867E-09
1345.72876	3.08912E-09
1345.85315	3.08957E-09
1345.97766	3.09001E-09
1346.10205	3.09045E-09
1346.22656	3.09088E-09
1346.35107	3.09131E-09
1346.47546	3.09174E-09
1346.59998	3.09216E-09
1346.72437	3.09258E-09
1346.84888	3.09299E-09
1346.97327	3.09340E-09
1347.09778	3.09381E-09
1347.22217	3.09422E-09
1347.34668	3.09462E-09
1347.47107	3.09501E-09
1347.59558	3.09541E-09
1347.71997	3.09579E-09
1347.84448	3.09617E-09
1347.96887	3.09655E-09
1348.09338	3.09693E-09
1348.21790	3.09730E-09
1348.34229	3.09766E-09
1348.46680	3.09803E-09
1348.59119	3.09838E-09
1348.71570	3.09874E-09
1348.84009	3.09909E-09
1348.96460	3.09943E-09
1349.08899	3.09977E-09
1349.21350	3.10010E-09
1349.33789	3.10043E-09
1349.46240	3.10076E-09
1349.58679	3.10108E-09
1349.71130	3.10139E-09
1349.83569	3.10171E-09
1349.96021	3.10202E-09
1350.08472	3.10232E-09
1350.20911	3.10262E-09
1350.33362	3.10291E-09
1350.45801	3.10320E-09
1350.58252	3.10349E-09
1350.70691	3.10377E-09
1350.83142	3.10405E-09
1350.95581	3.10433E-09
1351.08032	3.10459E-09
1351.20471	3.10486E-09
1351.32922	3.10513E-09
1351.45361	3.10539E-09
1351.57813	3.10564E-09
1351.70252	3.10589E-09
1351.82703	3.10614E-09
1351.95154	3.10639E-09
1352.07593	3.10664E-09
1352.20044	3.10688E-09
1352.32483	3.10712E-09
1352.44934	3.10736E-09
1352.57373	3.10759E-09
1352.69824	3.10783E-09
1352.82263	3.10806E-09
1352.94714	3.10829E-09
1353.07153	3.10852E-09
1353.19605	3.10875E-09
1353.32044	3.10898E-09
1353.44495	3.10921E-09
1353.56934	3.10944E-09
1353.69385	3.10967E-09
1353.81836	3.10989E-09
1353.94275	3.11012E-09
1354.06726	3.11035E-09
1354.19165	3.11058E-09
1354.31616	3.11082E-09
1354.44055	3.11105E-09
1354.56506	3.11129E-09
1354.68945	3.11152E-09
1354.81397	3.11176E-09
1354.93835	3.11200E-09
1355.06287	3.11225E-09
1355.18726	3.11249E-09
1355.31177	3.11274E-09
1355.43616	3.11299E-09
1355.56067	3.11325E-09
1355.68518	3.11351E-09
1355.80957	3.11377E-09
1355.93408	3.11404E-09
1356.05847	3.11431E-09
1356.18298	3.11459E-09
1356.30737	3.11486E-09
1356.43189	3.11515E-09
1356.55627	3.11544E-09
1356.68079	3.11573E-09
1356.80518	3.11603E-09
1356.92969	3.11633E-09
1357.05408	3.11664E-09
1357.17859	3.11696E-09
1357.30298	3.11727E-09
1357.42749	3.11760E-09
1357.55200	3.11793E-09
1357.67639	3.11826E-09
1357.80090	3.11860E-09
1357.92529	3.11894E-09
1358.04981	3.11929E-09
1358.17419	3.11965E-09
1358.29871	3.12001E-09
1358.42310	3.12037E-09
1358.54761	3.12074E-09
1358.67200	3.12111E-09
1358.79651	3.12149E-09
1358.92090	3.12188E-09
1359.04541	3.12226E-09
1359.16980	3.12265E-09
1359.29431	3.12305E-09
1359.41882	3.12345E-09
1359.54321	3.12385E-09
1359.66773	3.12426E-09
1359.79211	3.12467E-09
1359.91663	3.12508E-09
1360.04102	3.12549E-09
1360.16553	3.12590E-09
1360.28992	3.12632E-09
1360.41443	3.12674E-09
1360.53882	3.12716E-09
1360.66333	3.12758E-09
1360.78772	3.12800E-09
1360.91223	3.12842E-09
1361.03662	3.12883E-09
1361.16113	3.12925E-09
1361.28565	3.12966E-09
1361.41003	3.13008E-09
1361.53455	3.13049E-09
1361.65894	3.13089E-09
1361.78345	3.13130E-09
1361.90784	3.13170E-09
1362.03235	3.13210E-09
1362.15674	3.13249E-09
1362.28125	3.13288E-09
1362.40564	3.13326E-09
1362.53015	3.13364E-09
1362.65454	3.13401E-09
1362.77905	3.13437E-09
1362.90344	3.13472E-09
1363.02795	3.13507E-09
1363.15234	3.13541E-09
1363.27686	3.13574E-09
1363.40137	3.13606E-09
1363.52576	3.13637E-09
1363.65027	3.13667E-09
1363.77466	3.13697E-09
1363.89917	3.13725E-09
1364.02356	3.13751E-09
1364.14807	3.13777E-09
1364.27246	3.13802E-09
1364.39697	3.13825E-09
1364.52136	3.13847E-09
1364.64587	3.13868E-09
1364.77026	3.13888E-09
1364.89478	3.13906E-09
1365.01917	3.13923E-09
1365.14368	3.13938E-09
1365.26819	3.13952E-09
1365.39258	3.13965E-09
1365.51709	3.13976E-09
1365.64148	3.13986E-09
1365.76599	3.13995E-09
1365.89038	3.14001E-09
1366.01489	3.14007E-09
1366.13928	3.14011E-09
1366.26379	3.14014E-09
1366.38818	3.14015E-09
1366.51270	3.14015E-09
1366.63709	3.14013E-09
1366.76160	3.14010E-09
1366.88599	3.14006E-09
1367.01050	3.14000E-09
1367.13501	3.13993E-09
1367.25940	3.13985E-09
1367.38391	3.13975E-09
1367.50830	3.13965E-09
1367.63281	3.13953E-09
1367.75720	3.13940E-09
1367.88171	3.13926E-09
1368.00610	3.13911E-09
1368.13062	3.13894E-09
1368.25501	3.13877E-09
1368.37952	3.13859E-09
1368.50391	3.13840E-09
1368.62842	3.13820E-09
1368.75281	3.13800E-09
1368.87732	3.13779E-09
1369.00183	3.13757E-09
1369.12622	3.13735E-09
1369.25073	3.13712E-09
1369.37512	3.13689E-09
1369.49963	3.13666E-09
1369.62402	3.13643E-09
1369.74854	3.13619E-09
1369.87293	3.13595E-09
1369.99744	3.13571E-09
1370.12183	3.13547E-09
1370.24634	3.13524E-09
1370.37073	3.13500E-09
1370.49524	3.13478E-09
1370.61963	3.13455E-09
1370.74414	3.13433E-09
1370.86865	3.13412E-09
1370.99304	3.13392E-09
1371.11755	3.13372E-09
1371.24194	3.13353E-09
1371.36646	3.13335E-09
1371.49085	3.13318E-09
1371.61536	3.13302E-09
1371.73975	3.13288E-09
1371.86426	3.13275E-09
1371.98865	3.13263E-09
1372.11316	3.13252E-09
1372.23755	3.13243E-09
1372.36206	3.13236E-09
1372.48645	3.13230E-09
1372.61096	3.13227E-09
1372.73547	3.13225E-09
1372.85986	3.13225E-09
1372.98438	3.13227E-09
1373.10877	3.13231E-09
1373.23328	3.13237E-09
1373.35767	3.13246E-09
1373.48218	3.13256E-09
1373.60657	3.13269E-09
1373.73108	3.13284E-09
1373.85547	3.13302E-09
1373.97998	3.13322E-09
1374.10437	3.13345E-09
1374.22888	3.13370E-09
1374.35327	3.13397E-09
1374.47778	3.13427E-09
1374.60230	3.13460E-09
1374.72669	3.13495E-09
1374.85120	3.13533E-09
1374.97559	3.13574E-09
1375.10010	3.13617E-09
1375.22449	3.13663E-09
1375.34900	3.13711E-09
1375.47339	3.13762E-09
1375.59790	3.13816E-09
1375.72229	3.13872E-09
1375.84680	3.13931E-09
1375.97119	3.13992E-09
1376.09570	3.14056E-09
1376.22009	3.14123E-09
1376.34460	3.14192E-09
1376.46912	3.14264E-09
1376.59351	3.14337E-09
1376.71802	3.14414E-09
1376.84241	3.14492E-09
1376.96692	3.14573E-09
1377.09131	3.14656E-09
1377.21582	3.14741E-09
1377.34021	3.14827E-09
1377.46472	3.14916E-09
1377.58911	3.15007E-09
1377.71362	3.15100E-09
1377.83801	3.15194E-09
1377.96252	3.15289E-09
1378.08691	3.15387E-09
1378.21143	3.15485E-09
1378.33594	3.15585E-09
1378.46033	3.15686E-09
1378.58484	3.15788E-09
1378.70923	3.15891E-09
1378.83374	3.15995E-09
1378.95813	3.16100E-09
1379.08264	3.16205E-09
1379.20703	3.16311E-09
1379.33154	3.16417E-09
1379.45593	3.16523E-09
1379.58044	3.16629E-09
1379.70483	3.16736E-09
1379.82935	3.16842E-09
1379.95374	3.16948E-09
1380.07825	3.17053E-09
1380.20276	3.17158E-09
1380.32715	3.17262E-09
1380.45166	3.17366E-09
1380.57605	3.17468E-09
1380.70056	3.17570E-09
1380.82495	3.17670E-09
1380.94946	3.17769E-09
1381.07385	3.17866E-09
1381.19836	3.17962E-09
1381.32275	3.18056E-09
1381.44727	3.18149E-09
1381.57166	3.18239E-09
1381.69617	3.18327E-09
1381.82056	3.18413E-09
1381.94507	3.18496E-09
1382.06958	3.18578E-09
1382.19397	3.18656E-09
1382.31848	3.18732E-09
1382.44287	3.18806E-09
1382.56738	3.18876E-09
1382.69177	3.18944E-09
1382.81628	3.19008E-09
1382.94067	3.19069E-09
1383.06519	3.19128E-09
1383.18958	3.19183E-09
1383.31409	3.19235E-09
1383.43848	3.19283E-09
1383.56299	3.19328E-09
1383.68738	3.19370E-09
1383.81189	3.19408E-09
1383.93640	3.19442E-09
1384.06079	3.19473E-09
1384.18530	3.19501E-09
1384.30969	3.19524E-09
1384.43420	3.19544E-09
1384.55859	3.19561E-09
1384.68311	3.19574E-09
1384.80750	3.19583E-09
1384.93201	3.19589E-09
1385.05640	3.19591E-09
1385.18091	3.19589E-09
1385.30530	3.19584E-09
1385.42981	3.19575E-09
1385.55420	3.19562E-09
1385.67871	3.19546E-09
1385.80310	3.19527E-09
1385.92761	3.19505E-09
1386.05212	3.19479E-09
1386.17651	3.19450E-09
1386.30103	3.19418E-09
1386.42542	3.19383E-09
1386.54993	3.19345E-09
1386.67432	3.19304E-09
1386.79883	3.19261E-09
1386.92322	3.19214E-09
1387.04773	3.19165E-09
1387.17212	3.19114E-09
1387.29663	3.19060E-09
1387.42102	3.19004E-09
1387.54553	3.18946E-09
1387.66992	3.18886E-09
1387.79443	3.18824E-09
1387.91895	3.18760E-09
1388.04334	3.18695E-09
1388.16785	3.18628E-09
1388.29224	3.18560E-09
1388.41675	3.18490E-09
1388.54114	3.18420E-09
1388.66565	3.18349E-09
1388.79004	3.18277E-09
1388.91455	3.18204E-09
1389.03894	3.18131E-09
1389.16345	3.18057E-09
1389.28784	3.17983E-09
1389.41235	3.17909E-09
1389.53674	3.17835E-09
1389.66126	3.17761E-09
1389.78577	3.17688E-09
1389.91016	3.17615E-09
1390.03467	3.17542E-09
1390.15906	3.17471E-09
1390.28357	3.17400E-09
1390.40796	3.17330E-09
1390.53247	3.17261E-09
1390.65686	3.17194E-09
1390.78137	3.17128E-09
1390.90576	3.17063E-09
1391.03027	3.17000E-09
1391.15466	3.16938E-09
1391.27918	3.16879E-09
1391.40356	3.16821E-09
1391.52808	3.16765E-09
1391.65259	3.16711E-09
1391.77698	3.16660E-09
1391.90149	3.16611E-09
1392.02588	3.16564E-09
1392.15039	3.16520E-09
1392.27478	3.16478E-09
1392.39929	3.16438E-09
1392.52368	3.16401E-09
1392.64819	3.16367E-09
1392.77258	3.16336E-09
1392.89710	3.16307E-09
1393.02148	3.16281E-09
1393.14600	3.16258E-09
1393.27039	3.16238E-09
1393.39490	3.16221E-09
1393.51941	3.16206E-09
1393.64380	3.16195E-09
1393.76831	3.16186E-09
1393.89270	3.16181E-09
1394.01721	3.16178E-09
1394.14160	3.16179E-09
1394.26611	3.16181E-09
1394.39050	3.16187E-09
1394.51502	3.16197E-09
1394.63940	3.16208E-09
1394.76392	3.16223E-09
1394.88831	3.16240E-09
1395.01282	3.16260E-09
1395.13721	3.16283E-09
1395.26172	3.16308E-09
1395.38623	3.16336E-09
1395.51062	3.16366E-09
1395.63513	3.16399E-09
1395.75952	3.16433E-09
1395.88403	3.16471E-09
1396.00842	3.16510E-09
1396.13294	3.16551E-09
1396.25732	3.16595E-09
1396.38184	3.16640E-09
1396.50623	3.16688E-09
1396.63074	3.16736E-09
1396.75513	3.16787E-09
1396.87964	3.16839E-09
1397.00403	3.16892E-09
1397.12854	3.16947E-09
1397.25305	3.17003E-09
1397.37744	3.17060E-09
1397.50195	3.17118E-09
1397.62634	3.17177E-09
1397.75085	3.17236E-09
1397.87524	3.17297E-09
1397.99976	3.17357E-09
1398.12415	3.17418E-09
1398.24866	3.17479E-09
1398.37305	3.17541E-09
1398.49756	3.17602E-09
1398.62195	3.17664E-09
1398.74646	3.17725E-09
1398.87085	3.17786E-09
1398.99536	3.17847E-09
1399.11987	3.17907E-09
1399.24426	3.17967E-09
1399.36877	3.18025E-09
1399.49316	3.18084E-09
1399.61768	3.18141E-09
1399.74207	3.18197E-09
1399.86658	3.18252E-09
1399.99097	3.18305E-09
1400.11548	3.18358E-09
1400.23987	3.18408E-09
1400.36438	3.18458E-09
1400.48877	3.18506E-09
1400.61328	3.18552E-09
1400.73767	3.18597E-09
1400.86218	3.18639E-09
1400.98669	3.18680E-09
1401.11108	3.18719E-09
1401.23560	3.18756E-09
1401.35999	3.18791E-09
1401.48450	3.18824E-09
1401.60889	3.18855E-09
1401.73340	3.18884E-09
1401.85779	3.18910E-09
1401.98230	3.18935E-09
1402.10669	3.18957E-09
1402.23120	3.18977E-09
1402.35559	3.18995E-09
1402.48010	3.19011E-09
1402.60449	3.19024E-09
1402.72900	3.19035E-09
1402.85352	3.19044E-09
1402.97791	3.19051E-09
1403.10242	3.19056E-09
1403.22681	3.19058E-09
1403.35132	3.19059E-09
1403.47571	3.19057E-09
1403.60022	3.19053E-09
1403.72461	3.19048E-09
1403.84912	3.19040E-09
1403.97351	3.19031E-09
1404.09802	3.19019E-09
1404.22241	3.19006E-09
1404.34692	3.18991E-09
1404.47131	3.18975E-09
1404.59583	3.18957E-09
1404.72034	3.18937E-09
1404.84473	3.18916E-09
1404.96924	3.18894E-09
1405.09363	3.18870E-09
1405.21814	3.18846E-09
1405.34253	3.18820E-09
1405.46704	3.18794E-09
1405.59143	3.18766E-09
1405.71594	3.18738E-09
1405.84033	3.18709E-09
1405.96484	3.18679E-09
1406.08923	3.18649E-09
1406.21375	3.18619E-09
1406.33814	3.18588E-09
1406.46265	3.18557E-09
1406.58716	3.18526E-09
1406.71155	3.18495E-09
1406.83606	3.18464E-09
1406.96045	3.18432E-09
1407.08496	3.18402E-09
1407.20935	3.18372E-09
1407.33386	3.18342E-09
1407.45825	3.18313E-09
1407.58276	3.18284E-09
1407.70715	3.18256E-09
1407.83167	3.18229E-09
1407.95606	3.18203E-09
1408.08057	3.18178E-09
1408.20496	3.18154E-09
1408.32947	3.18132E-09
1408.45386	3.18110E-09
1408.57837	3.18090E-09
1408.70288	3.18071E-09
1408.82727	3.18053E-09
1408.95178	3.18037E-09
1409.07617	3.18023E-09
1409.20068	3.18010E-09
1409.32507	3.17999E-09
1409.44959	3.17990E-09
1409.57398	3.17982E-09
1409.69849	3.17977E-09
1409.82288	3.17973E-09
1409.94739	3.17971E-09
1410.07178	3.17971E-09
1410.19629	3.17973E-09
1410.32068	3.17977E-09
1410.44519	3.17982E-09
1410.56970	3.17990E-09
1410.69409	3.18000E-09
1410.81860	3.18011E-09
1410.94299	3.18025E-09
1411.06751	3.18041E-09
1411.19190	3.18059E-09
1411.31641	3.18078E-09
1411.44080	3.18100E-09
1411.56531	3.18124E-09
1411.68970	3.18149E-09
1411.81421	3.18177E-09
1411.93860	3.18206E-09
1412.06311	3.18237E-09
1412.18750	3.18270E-09
1412.31201	3.18305E-09
1412.43652	3.18341E-09
1412.56091	3.18379E-09
1412.68543	3.18419E-09
1412.80981	3.18460E-09
1412.93433	3.18502E-09
1413.05872	3.18546E-09
1413.18323	3.18592E-09
1413.30762	3.18638E-09
1413.43213	3.18686E-09
1413.55652	3.18735E-09
1413.68103	3.18785E-09
1413.80542	3.18836E-09
1413.92993	3.18888E-09
1414.05432	3.18941E-09
1414.17883	3.18995E-09
1414.30335	3.19049E-09
1414.42773	3.19104E-09
1414.55225	3.19159E-09
1414.67664	3.19215E-09
1414.80115	3.19272E-09
1414.92554	3.19328E-09
1415.05005	3.19385E-09
1415.17444	3.19441E-09
1415.29895	3.19498E-09
1415.42334	3.19555E-09
1415.54785	3.19612E-09
1415.67224	3.19668E-09
1415.79675	3.19724E-09
1415.92114	3.19780E-09
1416.04565	3.19836E-09
1416.17017	3.19891E-09
1416.29456	3.19945E-09
1416.41907	3.19999E-09
1416.54346	3.20052E-09
1416.66797	3.20104E-09
1416.79236	3.20155E-09
1416.91687	3.20205E-09
1417.04126	3.20255E-09
1417.16577	3.20303E-09
1417.29016	3.20350E-09
1417.41467	3.20396E-09
1417.53906	3.20441E-09
1417.66357	3.20485E-09
1417.78796	3.20527E-09
1417.91248	3.20568E-09
1418.03699	3.20608E-09
1418.16138	3.20646E-09
1418.28589	3.20683E-09
1418.41028	3.20718E-09
1418.53479	3.20752E-09
1418.65918	3.20785E-09
1418.78369	3.20816E-09
1418.90808	3.20846E-09
1419.03259	3.20874E-09
1419.15698	3.20900E-09
1419.28149	3.20925E-09
1419.40588	3.20949E-09
1419.53040	3.20971E-09
1419.65479	3.20992E-09
1419.77930	3.21011E-09
1419.90381	3.21029E-09
1420.02820	3.21046E-09
1420.15271	3.21061E-09
1420.27710	3.21075E-09
1420.40161	3.21088E-09
1420.52600	3.21100E-09
1420.65051	3.21110E-09
1420.77490	3.21119E-09
1420.89941	3.21127E-09
1421.02380	3.21134E-09
1421.14832	3.21140E-09
1421.27271	3.21145E-09
1421.39722	3.21149E-09
1421.52161	3.21152E-09
1421.64612	3.21155E-09
1421.77063	3.21157E-09
1421.89502	3.21158E-09
1422.01953	3.21159E-09
1422.14392	3.21159E-09
1422.26843	3.21159E-09
1422.39282	3.21158E-09
1422.51733	3.21157E-09
1422.64172	3.21156E-09
1422.76624	3.21155E-09
1422.89063	3.21153E-09
1423.01514	3.21151E-09
1423.13953	3.21150E-09
1423.26404	3.21149E-09
1423.38843	3.21148E-09
1423.51294	3.21147E-09
1423.63745	3.21147E-09
1423.76184	3.21147E-09
1423.88635	3.21147E-09
1424.01074	3.21148E-09
1424.13525	3.21150E-09
1424.25964	3.21152E-09
1424.38416	3.21155E-09
1424.50855	3.21158E-09
1424.63306	3.21163E-09
1424.75745	3.21169E-09
1424.88196	3.21175E-09
1425.00635	3.21183E-09
1425.13086	3.21192E-09
1425.25525	3.21202E-09
1425.37976	3.21213E-09
1425.50427	3.21225E-09
1425.62866	3.21238E-09
1425.75317	3.21253E-09
1425.87756	3.21269E-09
1426.00208	3.21286E-09
1426.12647	3.21305E-09
1426.25098	3.21325E-09
1426.37537	3.21346E-09
1426.49988	3.21369E-09
1426.62427	3.21394E-09
1426.74878	3.21419E-09
1426.87317	3.21447E-09
1426.99768	3.21475E-09
1427.12207	3.21506E-09
1427.24658	3.21537E-09
1427.37109	3.21570E-09
1427.49548	3.21605E-09
1427.62000	3.21641E-09
1427.74439	3.21678E-09
1427.86890	3.21717E-09
1427.99329	3.21757E-09
1428.11780	3.21798E-09
1428.24219	3.21841E-09
1428.36670	3.21885E-09
1428.49109	3.21930E-09
1428.61560	3.21976E-09
1428.73999	3.22024E-09
1428.86450	3.22073E-09
1428.98889	3.22122E-09
1429.11340	3.22173E-09
1429.23792	3.22225E-09
1429.36231	3.22278E-09
1429.48682	3.22331E-09
1429.61121	3.22385E-09
1429.73572	3.22441E-09
1429.86011	3.22497E-09
1429.98462	3.22553E-09
1430.10901	3.22610E-09
1430.23352	3.22668E-09
1430.35791	3.22726E-09
1430.48242	3.22784E-09
1430.60681	3.22842E-09
1430.73132	3.22901E-09
1430.85571	3.22960E-09
1430.98023	3.23019E-09
1431.10461	3.23078E-09
1431.22913	3.23137E-09
1431.35364	3.23197E-09
1431.47803	3.23255E-09
1431.60254	3.23314E-09
1431.72693	3.23373E-09
1431.85144	3.23431E-09
1431.97583	3.23488E-09
1432.10034	3.23545E-09
1432.22473	3.23601E-09
1432.34924	3.23657E-09
1432.47363	3.23712E-09
1432.59815	3.23766E-09
1432.72253	3.23820E-09
1432.84705	3.23873E-09
1432.97144	3.23924E-09
1433.09595	3.23975E-09
1433.22046	3.24024E-09
1433.34485	3.24073E-09
1433.46936	3.24120E-09
1433.59375	3.24167E-09
1433.71826	3.24212E-09
1433.84265	3.24255E-09
1433.96716	3.24298E-09
1434.09155	3.24339E-09
1434.21606	3.24379E-09
1434.34045	3.24417E-09
1434.46497	3.24454E-09
1434.58936	3.24490E-09
1434.71387	3.24524E-09
1434.83826	3.24556E-09
1434.96277	3.24588E-09
1435.08728	3.24617E-09
1435.21167	3.24646E-09
1435.33618	3.24673E-09
1435.46057	3.24698E-09
1435.58508	3.24722E-09
1435.70947	3.24744E-09
1435.83398	3.24765E-09
1435.95837	3.24785E-09
1436.08289	3.24803E-09
1436.20728	3.24820E-09
1436.33179	3.24836E-09
1436.45618	3.24850E-09
1436.58069	3.24863E-09
1436.70508	3.24875E-09
1436.82959	3.24886E-09
1436.95410	3.24895E-09
1437.07849	3.24904E-09
1437.20300	3.24911E-09
1437.32739	3.24918E-09
1437.45190	3.24923E-09
1437.57629	3.24928E-09
1437.70081	3.24932E-09
1437.82520	3.24934E-09
1437.94971	3.24937E-09
1438.07410	3.24939E-09
1438.19861	3.24940E-09
1438.32300	3.24940E-09
1438.44751	3.24940E-09
1438.57190	3.24940E-09
1438.69641	3.24940E-09
1438.82092	3.24939E-09
1438.94531	3.24938E-09
1439.06982	3.24937E-09
1439.19421	3.24937E-09
1439.31873	3.24936E-09
1439.44312	3.24935E-09
1439.56763	3.24935E-09
1439.69202	3.24936E-09
1439.81653	3.24936E-09
1439.94092	3.24937E-09
1440.06543	3.24939E-09
1440.18982	3.24941E-09
1440.31433	3.24944E-09
1440.43872	3.24948E-09
1440.56323	3.24952E-09
1440.68774	3.24958E-09
1440.81213	3.24964E-09
1440.93665	3.24972E-09
1441.06104	3.24981E-09
1441.18555	3.24990E-09
1441.30994	3.25002E-09
1441.43445	3.25014E-09
1441.55884	3.25028E-09
1441.68335	3.25043E-09
1441.80774	3.25060E-09
1441.93225	3.25077E-09
1442.05664	3.25097E-09
1442.18115	3.25118E-09
1442.30554	3.25141E-09
1442.43005	3.25166E-09
1442.55457	3.25192E-09
1442.67896	3.25220E-09
1442.80347	3.25249E-09
1442.92786	3.25281E-09
1443.05237	3.25314E-09
1443.17676	3.25349E-09
1443.30127	3.25386E-09
1443.42566	3.25425E-09
1443.55017	3.25465E-09
1443.67456	3.25508E-09
1443.79907	3.25552E-09
1443.92346	3.25598E-09
1444.04797	3.25646E-09
1444.17236	3.25696E-09
1444.29688	3.25748E-09
1444.42139	3.25802E-09
1444.54578	3.25858E-09
1444.67029	3.25916E-09
1444.79468	3.25975E-09
1444.91919	3.26036E-09
1445.04358	3.26098E-09
1445.16809	3.26163E-09
1445.29248	3.26229E-09
1445.41699	3.26297E-09
1445.54138	3.26367E-09
1445.66589	3.26438E-09
1445.79028	3.26510E-09
1445.91480	3.26584E-09
1446.03919	3.26659E-09
1446.16370	3.26736E-09
1446.28821	3.26814E-09
1446.41260	3.26893E-09
1446.53711	3.26974E-09
1446.66150	3.27056E-09
1446.78601	3.27138E-09
1446.91040	3.27222E-09
1447.03491	3.27307E-09
1447.15930	3.27393E-09
1447.28381	3.27480E-09
1447.40820	3.27568E-09
1447.53272	3.27656E-09
1447.65710	3.27745E-09
1447.78162	3.27834E-09
1447.90601	3.27925E-09
1448.03052	3.28015E-09
1448.15503	3.28106E-09
1448.27942	3.28198E-09
1448.40393	3.28290E-09
1448.52832	3.28382E-09
1448.65283	3.28474E-09
1448.77722	3.28566E-09
1448.90173	3.28658E-09
1449.02612	3.28751E-09
1449.15064	3.28842E-09
1449.27502	3.28934E-09
1449.39954	3.29026E-09
1449.52393	3.29117E-09
1449.64844	3.29208E-09
1449.77283	3.29299E-09
1449.89734	3.29389E-09
1450.02185	3.29478E-09
1450.14624	3.29567E-09
1450.27075	3.29655E-09
1450.39514	3.29743E-09
1450.51965	3.29830E-09
1450.64404	3.29916E-09
1450.76856	3.30001E-09
1450.89294	3.30085E-09
1451.01746	3.30169E-09
1451.14185	3.30252E-09
1451.26636	3.30333E-09
1451.39075	3.30414E-09
1451.51526	3.30494E-09
1451.63965	3.30573E-09
1451.76416	3.30650E-09
1451.88855	3.30727E-09
1452.01306	3.30802E-09
1452.13757	3.30877E-09
1452.26196	3.30950E-09
1452.38648	3.31022E-09
1452.51086	3.31093E-09
1452.63538	3.31162E-09
1452.75977	3.31231E-09
1452.88428	3.31299E-09
1453.00867	3.31365E-09
1453.13318	3.31431E-09
1453.25757	3.31495E-09
1453.38208	3.31558E-09
1453.50647	3.31620E-09
1453.63098	3.31681E-09
1453.75537	3.31741E-09
1453.87988	3.31801E-09
1454.00440	3.31859E-09
1454.12878	3.31916E-09
1454.25330	3.31973E-09
1454.37769	3.32028E-09
1454.50220	3.32083E-09
1454.62659	3.32137E-09
1454.75110	3.32191E-09
1454.87549	3.32244E-09
1455.00000	3.32296E-09
1455.12439	3.32347E-09
1455.24890	3.32398E-09
1455.37329	3.32449E-09
1455.49780	3.32499E-09
1455.62219	3.32549E-09
1455.74670	3.32598E-09
1455.87122	3.32647E-09
1455.99561	3.32697E-09
1456.12012	3.32746E-09
1456.24451	3.32795E-09
1456.36902	3.32844E-09
1456.49341	3.32894E-09
1456.61792	3.32942E-09
1456.74231	3.32992E-09
1456.86682	3.33042E-09
1456.99121	3.33092E-09
1457.11572	3.33143E-09
1457.24011	3.33193E-09
1457.36462	3.33245E-09
1457.48901	3.33297E-09
1457.61353	3.33349E-09
1457.73804	3.33403E-09
1457.86243	3.33456E-09
1457.98694	3.33511E-09
1458.11133	3.33566E-09
1458.23584	3.33623E-09
1458.36023	3.33680E-09
1458.48474	3.33738E-09
1458.60913	3.33797E-09
1458.73364	3.33857E-09
1458.85803	3.33919E-09
1458.98254	3.33981E-09
1459.10693	3.34044E-09
1459.23145	3.34109E-09
1459.35584	3.34175E-09
1459.48035	3.34242E-09
1459.60486	3.34310E-09
1459.72925	3.34380E-09
1459.85376	3.34451E-09
1459.97815	3.34523E-09
1460.10266	3.34596E-09
1460.22705	3.34670E-09
1460.35156	3.34746E-09
1460.47595	3.34823E-09
1460.60046	3.34902E-09
1460.72485	3.34982E-09
1460.84937	3.35062E-09
1460.97376	3.35145E-09
1461.09827	3.35228E-09
1461.22266	3.35313E-09
1461.34717	3.35399E-09
1461.47168	3.35486E-09
1461.59607	3.35575E-09
1461.72058	3.35664E-09
1461.84497	3.35755E-09
1461.96948	3.35847E-09
1462.09387	3.35939E-09
1462.21838	3.36033E-09
1462.34277	3.36128E-09
1462.46729	3.36224E-09
1462.59168	3.36321E-09
1462.71619	3.36419E-09
1462.84058	3.36517E-09
1462.96509	3.36616E-09
1463.08948	3.36716E-09
1463.21399	3.36817E-09
1463.33850	3.36918E-09
1463.46289	3.37020E-09
1463.58740	3.37123E-09
1463.71179	3.37225E-09
1463.83630	3.37328E-09
1463.96069	3.37431E-09
1464.08521	3.37535E-09
1464.20960	3.37639E-09
1464.33411	3.37744E-09
1464.45850	3.37848E-09
1464.58301	3.37952E-09
1464.70740	3.38056E-09
1464.83191	3.38160E-09
1464.95630	3.38264E-09
1465.08081	3.38367E-09
1465.20532	3.38471E-09
1465.32971	3.38574E-09
1465.45422	3.38676E-09
1465.57861	3.38778E-09
1465.70313	3.38879E-09
1465.82752	3.38980E-09
1465.95203	3.39080E-09
1466.07642	3.39179E-09
1466.20093	3.39277E-09
1466.32532	3.39375E-09
1466.44983	3.39471E-09
1466.57422	3.39566E-09
1466.69873	3.39660E-09
1466.82312	3.39753E-09
1466.94763	3.39845E-09
1467.07214	3.39936E-09
1467.19653	3.40024E-09
1467.32105	3.40112E-09
1467.44544	3.40198E-09
1467.56995	3.40283E-09
1467.69434	3.40366E-09
1467.81885	3.40448E-09
1467.94324	3.40528E-09
1468.06775	3.40606E-09
1468.19214	3.40683E-09
1468.31665	3.40758E-09
1468.44104	3.40831E-09
1468.56555	3.40902E-09
1468.68994	3.40972E-09
1468.81445	3.41040E-09
1468.93897	3.41105E-09
1469.06335	3.41169E-09
1469.18787	3.41231E-09
1469.31226	3.41291E-09
1469.43677	3.41349E-09
1469.56116	3.41406E-09
1469.68567	3.41460E-09
1469.81006	3.41513E-09
1469.93457	3.41563E-09
1470.05896	3.41612E-09
1470.18347	3.41659E-09
1470.30786	3.41703E-09
1470.43237	3.41747E-09
1470.55676	3.41788E-09
1470.68127	3.41827E-09
1470.80579	3.41866E-09
1470.93018	3.41902E-09
1471.05469	3.41936E-09
1471.17908	3.41969E-09
1471.30359	3.42000E-09
1471.42798	3.42030E-09
1471.55249	3.42058E-09
1471.67688	3.42085E-09
1471.80139	3.42111E-09
1471.92578	3.42135E-09
1472.05029	3.42158E-09
1472.17468	3.42180E-09
1472.29919	3.42201E-09
1472.42358	3.42221E-09
1472.54810	3.42240E-09
1472.67261	3.42259E-09
1472.79700	3.42276E-09
1472.92151	3.42293E-09
1473.04590	3.42309E-09
1473.17041	3.42324E-09
1473.29480	3.42339E-09
1473.41931	3.42354E-09
1473.54370	3.42369E-09
1473.66821	3.42383E-09
1473.79260	3.42398E-09
1473.91711	3.42412E-09
1474.04150	3.42427E-09
1474.16602	3.42442E-09
1474.29041	3.42457E-09
1474.41492	3.42472E-09
1474.53931	3.42488E-09
1474.66382	3.42505E-09
1474.78833	3.42522E-09
1474.91272	3.42540E-09
1475.03723	3.42559E-09
1475.16162	3.42578E-09
1475.28613	3.42599E-09
1475.41052	3.42621E-09
1475.53503	3.42644E-09
1475.65942	3.42669E-09
1475.78394	3.42694E-09
1475.90833	3.42722E-09
1476.03284	3.42750E-09
1476.15723	3.42781E-09
1476.28174	3.42814E-09
1476.40613	3.42848E-09
1476.53064	3.42884E-09
1476.65515	3.42922E-09
1476.77954	3.42962E-09
1476.90405	3.43004E-09
1477.02844	3.43048E-09
1477.15295	3.43095E-09
1477.27734	3.43143E-09
1477.40186	3.43195E-09
1477.52625	3.43248E-09
1477.65076	3.43305E-09
1477.77515	3.43363E-09
1477.89966	3.43425E-09
1478.02405	3.43489E-09
1478.14856	3.43555E-09
1478.27295	3.43625E-09
1478.39746	3.43697E-09
1478.52197	3.43772E-09
1478.64636	3.43851E-09
1478.77087	3.43932E-09
1478.89526	3.44015E-09
1479.01978	3.44103E-09
1479.14417	3.44193E-09
1479.26868	3.44286E-09
1479.39307	3.44382E-09
1479.51758	3.44481E-09
1479.64197	3.44584E-09
1479.76648	3.44689E-09
1479.89087	3.44798E-09
1480.01538	3.44910E-09
1480.13977	3.45024E-09
1480.26428	3.45143E-09
1480.38879	3.45264E-09
1480.51318	3.45389E-09
1480.63770	3.45516E-09
1480.76209	3.45647E-09
1480.88660	3.45781E-09
1481.01099	3.45918E-09
1481.13550	3.46059E-09
1481.25989	3.46202E-09
1481.38440	3.46349E-09
1481.50879	3.46498E-09
1481.63330	3.46651E-09
1481.75769	3.46806E-09
1481.88220	3.46964E-09
1482.00659	3.47126E-09
1482.13110	3.47290E-09
1482.25562	3.47458E-09
1482.38001	3.47628E-09
1482.50452	3.47801E-09
1482.62891	3.47978E-09
1482.75342	3.48156E-09
1482.87781	3.48338E-09
1483.00232	3.48522E-09
1483.12671	3.48709E-09
1483.25122	3.48899E-09
1483.37561	3.49091E-09
1483.50012	3.49284E-09
1483.62451	3.49481E-09
1483.74902	3.49679E-09
1483.87341	3.49880E-09
1483.99793	3.50083E-09
1484.12244	3.50288E-09
1484.24683	3.50495E-09
1484.37134	3.50703E-09
1484.49573	3.50913E-09
1484.62024	3.51125E-09
1484.74463	3.51339E-09
1484.86914	3.51554E-09
1484.99353	3.51771E-09
1485.11804	3.51989E-09
1485.24243	3.52209E-09
1485.36694	3.52430E-09
1485.49133	3.52652E-09
1485.61585	3.52874E-09
1485.74023	3.53099E-09
1485.86475	3.53324E-09
1485.98926	3.53550E-09
1486.11365	3.53777E-09
1486.23816	3.54004E-09
1486.36255	3.54233E-09
1486.48706	3.54462E-09
1486.61145	3.54692E-09
1486.73596	3.54921E-09
1486.86035	3.55152E-09
1486.98486	3.55383E-09
1487.10925	3.55614E-09
1487.23377	3.55846E-09
1487.35815	3.56078E-09
1487.48267	3.56310E-09
1487.60706	3.56543E-09
1487.73157	3.56775E-09
1487.85608	3.57008E-09
1487.98047	3.57240E-09
1488.10498	3.57473E-09
1488.22937	3.57707E-09
1488.35388	3.57939E-09
1488.47827	3.58173E-09
1488.60278	3.58406E-09
1488.72717	3.58639E-09
1488.85169	3.58873E-09
1488.97607	3.59106E-09
1489.10059	3.59340E-09
1489.22498	3.59573E-09
1489.34949	3.59807E-09
1489.47388	3.60041E-09
1489.59839	3.60274E-09
1489.72290	3.60508E-09
1489.84729	3.60742E-09
1489.97180	3.60976E-09
1490.09619	3.61211E-09
1490.22070	3.61445E-09
1490.34509	3.61681E-09
1490.46960	3.61916E-09
1490.59399	3.62152E-09
1490.71851	3.62388E-09
1490.84290	3.62625E-09
1490.96741	3.62862E-09
1491.09180	3.63100E-09
1491.21631	3.63338E-09
1491.34070	3.63578E-09
1491.46521	3.63818E-09
1491.58972	3.64059E-09
1491.71411	3.64300E-09
1491.83862	3.64543E-09
1491.96301	3.64787E-09
1492.08752	3.65032E-09
1492.21191	3.65279E-09
1492.33643	3.65525E-09
1492.46082	3.65774E-09
1492.58533	3.66024E-09
1492.70972	3.66276E-09
1492.83423	3.66529E-09
1492.95862	3.66784E-09
1493.08313	3.67040E-09
1493.20752	3.67298E-09
1493.33203	3.67558E-09
1493.45654	3.67821E-09
1493.58093	3.68084E-09
1493.70544	3.68351E-09
1493.82983	3.68619E-09
1493.95435	3.68890E-09
1494.07874	3.69163E-09
1494.20325	3.69439E-09
1494.32764	3.69717E-09
1494.45215	3.69997E-09
1494.57654	3.70281E-09
1494.70105	3.70567E-09
1494.82544	3.70856E-09
1494.94995	3.71148E-09
1495.07434	3.71443E-09
1495.19885	3.71741E-09
1495.32336	3.72042E-09
1495.44775	3.72346E-09
1495.57227	3.72653E-09
1495.69666	3.72964E-09
1495.82117	3.73278E-09
1495.94556	3.73596E-09
1496.07007	3.73917E-09
1496.19446	3.74242E-09
1496.31897	3.74571E-09
1496.44336	3.74904E-09
1496.56787	3.75240E-09
1496.69226	3.75581E-09
1496.81677	3.75925E-09
1496.94116	3.76273E-09
1497.06567	3.76625E-09
1497.19006	3.76982E-09
1497.31458	3.77342E-09
1497.43909	3.77706E-09
1497.56348	3.78075E-09
1497.68799	3.78448E-09
1497.81238	3.78826E-09
1497.93689	3.79207E-09
1498.06128	3.79593E-09
1498.18579	3.79983E-09
1498.31018	3.80378E-09
1498.43469	3.80777E-09
1498.55908	3.81180E-09
1498.68359	3.81588E-09
1498.80798	3.82000E-09
1498.93250	3.82417E-09
1499.05689	3.82839E-09
1499.18140	3.83264E-09
1499.30591	3.83694E-09
1499.43030	3.84128E-09
1499.55481	3.84567E-09
1499.67920	3.85009E-09
1499.80371	3.85457E-09
1499.92810	3.85908E-09
1500.05261	3.86364E-09
1500.17700	3.86824E-09
1500.30151	3.87289E-09
1500.42590	3.87758E-09
1500.55042	3.88230E-09
1500.67481	3.88707E-09
1500.79932	3.89188E-09
1500.92371	3.89673E-09
1501.04822	3.90161E-09
1501.17273	3.90654E-09
1501.29712	3.91151E-09
1501.42163	3.91651E-09
1501.54602	3.92155E-09
1501.67053	3.92663E-09
1501.79492	3.93175E-09
1501.91943	3.93690E-09
1502.04382	3.94209E-09
1502.16834	3.94731E-09
1502.29273	3.95256E-09
1502.41724	3.95786E-09
1502.54163	3.96317E-09
1502.66614	3.96853E-09
1502.79053	3.97392E-09
1502.91504	3.97934E-09
1503.03955	3.98480E-09
1503.16394	3.99028E-09
1503.28845	3.99580E-09
1503.41284	4.00134E-09
1503.53735	4.00692E-09
1503.66174	4.01253E-09
1503.78626	4.01817E-09
1503.91065	4.02383E-09
1504.03516	4.02953E-09
1504.15955	4.03526E-09
1504.28406	4.04101E-09
1504.40845	4.04681E-09
1504.53296	4.05262E-09
1504.65735	4.05846E-09
1504.78186	4.06434E-09
1504.90637	4.07024E-09
1505.03076	4.07618E-09
1505.15527	4.08215E-09
1505.27966	4.08815E-09
1505.40418	4.09418E-09
1505.52856	4.10024E-09
1505.65308	4.10634E-09
1505.77747	4.11248E-09
1505.90198	4.11864E-09
1506.02637	4.12484E-09
1506.15088	4.13108E-09
1506.27527	4.13736E-09
1506.39978	4.14368E-09
1506.52417	4.15003E-09
1506.64868	4.15643E-09
1506.77319	4.16287E-09
1506.89758	4.16935E-09
1507.02210	4.17586E-09
1507.14648	4.18243E-09
1507.27100	4.18905E-09
1507.39539	4.19572E-09
1507.51990	4.20244E-09
1507.64429	4.20921E-09
1507.76880	4.21603E-09
1507.89319	4.22290E-09
1508.01770	4.22983E-09
1508.14209	4.23683E-09
1508.26660	4.24388E-09
1508.39099	4.25099E-09
1508.51550	4.25818E-09
1508.64002	4.26542E-09
1508.76440	4.27274E-09
1508.88892	4.28013E-09
1509.01331	4.28759E-09
1509.13782	4.29512E-09
1509.26221	4.30273E-09
1509.38672	4.31043E-09
1509.51111	4.31820E-09
1509.63562	4.32605E-09
1509.76001	4.33401E-09
1509.88452	4.34204E-09
1510.00891	4.35016E-09
1510.13342	4.35838E-09
1510.25781	4.36669E-09
1510.38232	4.37511E-09
1510.50684	4.38362E-09
1510.63123	4.39225E-09
1510.75574	4.40098E-09
1510.88013	4.40983E-09
1511.00464	4.41878E-09
1511.12903	4.42785E-09
1511.25354	4.43704E-09
1511.37793	4.44635E-09
1511.50244	4.45578E-09
1511.62683	4.46535E-09
1511.75134	4.47504E-09
1511.87573	4.48487E-09
1512.00024	4.49483E-09
1512.12463	4.50492E-09
1512.24915	4.51517E-09
1512.37366	4.52555E-09
1512.49805	4.53608E-09
1512.62256	4.54676E-09
1512.74695	4.55761E-09
1512.87146	4.56860E-09
1512.99585	4.57975E-09
1513.12036	4.59107E-09
1513.24475	4.60255E-09
1513.36926	4.61420E-09
1513.49365	4.62602E-09
1513.61816	4.63802E-09
1513.74255	4.65020E-09
1513.86707	4.66256E-09
1513.99146	4.67510E-09
1514.11597	4.68784E-09
1514.24048	4.70077E-09
1514.36487	4.71389E-09
1514.48938	4.72722E-09
1514.61377	4.74074E-09
1514.73828	4.75447E-09
1514.86267	4.76842E-09
1514.98718	4.78257E-09
1515.11157	4.79694E-09
1515.23608	4.81153E-09
1515.36047	4.82634E-09
1515.48499	4.84138E-09
1515.60938	4.85666E-09
1515.73389	4.87217E-09
1515.85828	4.88793E-09
1515.98279	4.90392E-09
1516.10730	4.92017E-09
1516.23169	4.93667E-09
1516.35620	4.95344E-09
1516.48059	4.97046E-09
1516.60510	4.98775E-09
1516.72949	5.00531E-09
1516.85400	5.02315E-09
1516.97839	5.04128E-09
1517.10291	5.05969E-09
1517.22730	5.07840E-09
1517.35181	5.09743E-09
1517.47620	5.11676E-09
1517.60071	5.13641E-09
1517.72510	5.15638E-09
1517.84961	5.17669E-09
1517.97412	5.19735E-09
1518.09851	5.21835E-09
1518.22302	5.23971E-09
1518.34741	5.26145E-09
1518.47192	5.28356E-09
1518.59631	5.30608E-09
1518.72083	5.32899E-09
1518.84522	5.35233E-09
1518.96973	5.37609E-09
1519.09412	5.40030E-09
1519.21863	5.42498E-09
1519.34302	5.45013E-09
1519.46753	5.47577E-09
1519.59192	5.50193E-09
1519.71643	5.52863E-09
1519.84082	5.55588E-09
1519.96533	5.58370E-09
1520.08984	5.61213E-09
1520.21423	5.64118E-09
1520.33875	5.67089E-09
1520.46314	5.70127E-09
1520.58765	5.73236E-09
1520.71204	5.76419E-09
1520.83655	5.79680E-09
1520.96094	5.83022E-09
1521.08545	5.86450E-09
1521.20984	5.89967E-09
1521.33435	5.93577E-09
1521.45874	5.97287E-09
1521.58325	6.01099E-09
1521.70764	6.05021E-09
1521.83215	6.09057E-09
1521.95667	6.13214E-09
1522.08106	6.17497E-09
1522.20557	6.21915E-09
1522.32996	6.26475E-09
1522.45447	6.31184E-09
1522.57886	6.36052E-09
1522.70337	6.41087E-09
1522.82776	6.46298E-09
1522.95227	6.51697E-09
1523.07666	6.57295E-09
1523.20117	6.63105E-09
1523.32556	6.69139E-09
1523.45007	6.75411E-09
1523.57446	6.81938E-09
1523.69898	6.88734E-09
1523.82349	6.95819E-09
1523.94788	7.03211E-09
1524.07239	7.10931E-09
1524.19678	7.19003E-09
1524.32129	7.27452E-09
1524.44568	7.36304E-09
1524.57019	7.45589E-09
1524.69458	7.55339E-09
1524.81909	7.65590E-09
1524.94348	7.76382E-09
1525.06799	7.87757E-09
1525.19238	7.99764E-09
1525.31690	8.12453E-09
1525.44128	8.25884E-09
1525.56580	8.40124E-09
1525.69031	8.55244E-09
1525.81470	8.71325E-09
1525.93921	8.88457E-09
1526.06360	9.06743E-09
1526.18811	9.26298E-09
1526.31250	9.47255E-09
1526.43701	9.69763E-09
1526.56140	9.93996E-09
1526.68591	1.02015E-08
1526.81030	1.04845E-08
1526.93481	1.07917E-08
1527.05920	1.11263E-08
1527.18372	1.14919E-08
1527.30811	1.18932E-08
1527.43262	1.23355E-08
1527.55713	1.28257E-08
1527.68152	1.33724E-08
1527.80603	1.39866E-08
1527.93042	1.46827E-08
1528.05493	1.54807E-08
1528.17932	1.64080E-08
1528.30383	1.75041E-08
1528.42822	1.88283E-08
1528.55273	2.04712E-08
1528.67712	2.25756E-08
1528.80164	2.53624E-08
1528.92603	2.91220E-08
1529.05054	3.38051E-08
1529.17493	3.60798E-08