Wavenumber	NESR 2.85 cm-1
1019.53296	1.50203E-08
1019.65741	1.50107E-08
1019.78186	1.49977E-08
1019.90631	1.49813E-08
1020.03076	1.49615E-08
1020.15521	1.49384E-08
1020.27966	1.49121E-08
1020.40411	1.48827E-08
1020.52863	1.48502E-08
1020.65308	1.48147E-08
1020.77753	1.47765E-08
1020.90198	1.47356E-08
1021.02643	1.46921E-08
1021.15088	1.46461E-08
1021.27533	1.45980E-08
1021.39978	1.45476E-08
1021.52423	1.44953E-08
1021.64868	1.44411E-08
1021.77313	1.43851E-08
1021.89758	1.43277E-08
1022.02203	1.42687E-08
1022.14648	1.42084E-08
1022.27094	1.41469E-08
1022.39545	1.40843E-08
1022.51990	1.40208E-08
1022.64435	1.39563E-08
1022.76880	1.38912E-08
1022.89325	1.38253E-08
1023.01770	1.37589E-08
1023.14215	1.36920E-08
1023.26660	1.36246E-08
1023.39105	1.35569E-08
1023.51550	1.34889E-08
1023.63995	1.34206E-08
1023.76440	1.33523E-08
1023.88886	1.32837E-08
1024.01331	1.32152E-08
1024.13782	1.31466E-08
1024.26221	1.30781E-08
1024.38672	1.30095E-08
1024.51111	1.29411E-08
1024.63562	1.28728E-08
1024.76001	1.28047E-08
1024.88452	1.27367E-08
1025.00891	1.26689E-08
1025.13342	1.26013E-08
1025.25794	1.25340E-08
1025.38232	1.24669E-08
1025.50684	1.24001E-08
1025.63123	1.23336E-08
1025.75574	1.22673E-08
1025.88013	1.22014E-08
1026.00464	1.21358E-08
1026.12903	1.20705E-08
1026.25354	1.20056E-08
1026.37793	1.19410E-08
1026.50244	1.18768E-08
1026.62683	1.18128E-08
1026.75134	1.17493E-08
1026.87573	1.16862E-08
1027.00024	1.16234E-08
1027.12476	1.15610E-08
1027.24915	1.14989E-08
1027.37366	1.14373E-08
1027.49805	1.13760E-08
1027.62256	1.13152E-08
1027.74695	1.12547E-08
1027.87146	1.11947E-08
1027.99585	1.11350E-08
1028.12036	1.10757E-08
1028.24475	1.10169E-08
1028.36926	1.09584E-08
1028.49365	1.09003E-08
1028.61816	1.08426E-08
1028.74255	1.07854E-08
1028.86707	1.07285E-08
1028.99158	1.06720E-08
1029.11597	1.06160E-08
1029.24048	1.05603E-08
1029.36487	1.05051E-08
1029.48938	1.04503E-08
1029.61377	1.03958E-08
1029.73828	1.03418E-08
1029.86267	1.02881E-08
1029.98718	1.02349E-08
1030.11157	1.01821E-08
1030.23608	1.01296E-08
1030.36047	1.00775E-08
1030.48499	1.00259E-08
1030.60938	9.97461E-09
1030.73389	9.92373E-09
1030.85828	9.87323E-09
1030.98279	9.82312E-09
1031.10730	9.77338E-09
1031.23169	9.72404E-09
1031.35620	9.67507E-09
1031.48059	9.62648E-09
1031.60510	9.57826E-09
1031.72949	9.53041E-09
1031.85400	9.48292E-09
1031.97839	9.43580E-09
1032.10291	9.38904E-09
1032.22730	9.34264E-09
1032.35181	9.29660E-09
1032.47620	9.25091E-09
1032.60071	9.20556E-09
1032.72510	9.16057E-09
1032.84961	9.11591E-09
1032.97412	9.07160E-09
1033.09851	9.02761E-09
1033.22302	8.98395E-09
1033.34741	8.94064E-09
1033.47192	8.89764E-09
1033.59631	8.85496E-09
1033.72083	8.81261E-09
1033.84522	8.77056E-09
1033.96973	8.72883E-09
1034.09412	8.68740E-09
1034.21863	8.64626E-09
1034.34302	8.60543E-09
1034.46753	8.56490E-09
1034.59192	8.52465E-09
1034.71643	8.48469E-09
1034.84094	8.44502E-09
1034.96533	8.40561E-09
1035.08984	8.36649E-09
1035.21423	8.32764E-09
1035.33875	8.28905E-09
1035.46314	8.25073E-09
1035.58765	8.21266E-09
1035.71204	8.17485E-09
1035.83655	8.13729E-09
1035.96094	8.09998E-09
1036.08545	8.06291E-09
1036.20984	8.02608E-09
1036.33435	7.98949E-09
1036.45874	7.95313E-09
1036.58325	7.91700E-09
1036.70776	7.88110E-09
1036.83215	7.84541E-09
1036.95667	7.80994E-09
1037.08106	7.77469E-09
1037.20557	7.73966E-09
1037.32996	7.70483E-09
1037.45447	7.67021E-09
1037.57886	7.63579E-09
1037.70337	7.60156E-09
1037.82776	7.56754E-09
1037.95227	7.53370E-09
1038.07666	7.50006E-09
1038.20117	7.46660E-09
1038.32556	7.43333E-09
1038.45007	7.40024E-09
1038.57459	7.36732E-09
1038.69898	7.33458E-09
1038.82349	7.30202E-09
1038.94788	7.26963E-09
1039.07239	7.23741E-09
1039.19678	7.20535E-09
1039.32129	7.17346E-09
1039.44568	7.14173E-09
1039.57019	7.11016E-09
1039.69458	7.07876E-09
1039.81909	7.04750E-09
1039.94348	7.01641E-09
1040.06799	6.98546E-09
1040.19238	6.95467E-09
1040.31690	6.92404E-09
1040.44141	6.89355E-09
1040.56580	6.86321E-09
1040.69031	6.83302E-09
1040.81470	6.80297E-09
1040.93921	6.77306E-09
1041.06360	6.74330E-09
1041.18811	6.71369E-09
1041.31250	6.68421E-09
1041.43701	6.65487E-09
1041.56140	6.62567E-09
1041.68591	6.59661E-09
1041.81030	6.56769E-09
1041.93481	6.53891E-09
1042.05920	6.51027E-09
1042.18372	6.48176E-09
1042.30823	6.45339E-09
1042.43262	6.42515E-09
1042.55713	6.39706E-09
1042.68152	6.36909E-09
1042.80603	6.34126E-09
1042.93042	6.31356E-09
1043.05493	6.28600E-09
1043.17932	6.25857E-09
1043.30383	6.23128E-09
1043.42822	6.20412E-09
1043.55273	6.17710E-09
1043.67712	6.15021E-09
1043.80164	6.12345E-09
1043.92603	6.09684E-09
1044.05054	6.07035E-09
1044.17505	6.04399E-09
1044.29944	6.01777E-09
1044.42395	5.99168E-09
1044.54834	5.96574E-09
1044.67285	5.93991E-09
1044.79724	5.91423E-09
1044.92175	5.88868E-09
1045.04614	5.86327E-09
1045.17065	5.83799E-09
1045.29504	5.81285E-09
1045.41956	5.78784E-09
1045.54395	5.76297E-09
1045.66846	5.73823E-09
1045.79285	5.71363E-09
1045.91736	5.68916E-09
1046.04187	5.66483E-09
1046.16626	5.64063E-09
1046.29077	5.61657E-09
1046.41516	5.59265E-09
1046.53967	5.56885E-09
1046.66406	5.54520E-09
1046.78857	5.52168E-09
1046.91296	5.49829E-09
1047.03748	5.47504E-09
1047.16187	5.45193E-09
1047.28638	5.42895E-09
1047.41077	5.40610E-09
1047.53528	5.38339E-09
1047.65967	5.36081E-09
1047.78418	5.33836E-09
1047.90869	5.31604E-09
1048.03308	5.29386E-09
1048.15759	5.27181E-09
1048.28198	5.24990E-09
1048.40649	5.22811E-09
1048.53088	5.20646E-09
1048.65540	5.18494E-09
1048.77979	5.16355E-09
1048.90430	5.14229E-09
1049.02869	5.12116E-09
1049.15320	5.10016E-09
1049.27759	5.07927E-09
1049.40210	5.05853E-09
1049.52649	5.03791E-09
1049.65100	5.01742E-09
1049.77551	4.99704E-09
1049.89990	4.97680E-09
1050.02441	4.95668E-09
1050.14880	4.93669E-09
1050.27332	4.91681E-09
1050.39771	4.89706E-09
1050.52222	4.87743E-09
1050.64661	4.85792E-09
1050.77112	4.83853E-09
1050.89551	4.81925E-09
1051.02002	4.80010E-09
1051.14441	4.78106E-09
1051.26892	4.76214E-09
1051.39331	4.74333E-09
1051.51782	4.72463E-09
1051.64233	4.70606E-09
1051.76672	4.68758E-09
1051.89124	4.66923E-09
1052.01563	4.65098E-09
1052.14014	4.63284E-09
1052.26453	4.61481E-09
1052.38904	4.59690E-09
1052.51343	4.57908E-09
1052.63794	4.56138E-09
1052.76233	4.54378E-09
1052.88684	4.52627E-09
1053.01123	4.50889E-09
1053.13574	4.49159E-09
1053.26013	4.47440E-09
1053.38464	4.45731E-09
1053.50903	4.44031E-09
1053.63355	4.42341E-09
1053.75806	4.40662E-09
1053.88245	4.38992E-09
1054.00696	4.37331E-09
1054.13135	4.35681E-09
1054.25586	4.34039E-09
1054.38025	4.32407E-09
1054.50476	4.30784E-09
1054.62915	4.29170E-09
1054.75366	4.27564E-09
1054.87805	4.25970E-09
1055.00256	4.24382E-09
1055.12695	4.22804E-09
1055.25147	4.21236E-09
1055.37585	4.19675E-09
1055.50037	4.18123E-09
1055.62488	4.16579E-09
1055.74927	4.15044E-09
1055.87378	4.13517E-09
1055.99817	4.12000E-09
1056.12268	4.10489E-09
1056.24707	4.08988E-09
1056.37158	4.07494E-09
1056.49597	4.06009E-09
1056.62048	4.04531E-09
1056.74487	4.03062E-09
1056.86939	4.01600E-09
1056.99377	4.00146E-09
1057.11829	3.98701E-09
1057.24268	3.97263E-09
1057.36719	3.95832E-09
1057.49170	3.94410E-09
1057.61609	3.92995E-09
1057.74060	3.91587E-09
1057.86499	3.90186E-09
1057.98950	3.88794E-09
1058.11389	3.87409E-09
1058.23840	3.86031E-09
1058.36279	3.84661E-09
1058.48731	3.83298E-09
1058.61169	3.81943E-09
1058.73621	3.80594E-09
1058.86060	3.79253E-09
1058.98511	3.77919E-09
1059.10950	3.76593E-09
1059.23401	3.75272E-09
1059.35852	3.73959E-09
1059.48291	3.72655E-09
1059.60742	3.71355E-09
1059.73181	3.70063E-09
1059.85632	3.68779E-09
1059.98071	3.67502E-09
1060.10523	3.66231E-09
1060.22961	3.64967E-09
1060.35413	3.63710E-09
1060.47852	3.62460E-09
1060.60303	3.61216E-09
1060.72742	3.59980E-09
1060.85193	3.58749E-09
1060.97632	3.57526E-09
1061.10083	3.56309E-09
1061.22534	3.55100E-09
1061.34973	3.53897E-09
1061.47424	3.52700E-09
1061.59863	3.51510E-09
1061.72315	3.50326E-09
1061.84753	3.49149E-09
1061.97205	3.47979E-09
1062.09644	3.46815E-09
1062.22095	3.45658E-09
1062.34534	3.44506E-09
1062.46985	3.43362E-09
1062.59424	3.42223E-09
1062.71875	3.41091E-09
1062.84314	3.39965E-09
1062.96765	3.38845E-09
1063.09216	3.37731E-09
1063.21655	3.36623E-09
1063.34106	3.35522E-09
1063.46545	3.34427E-09
1063.58997	3.33338E-09
1063.71436	3.32255E-09
1063.83887	3.31178E-09
1063.96326	3.30107E-09
1064.08777	3.29041E-09
1064.21216	3.27981E-09
1064.33667	3.26928E-09
1064.46106	3.25880E-09
1064.58557	3.24838E-09
1064.70996	3.23802E-09
1064.83447	3.22771E-09
1064.95898	3.21746E-09
1065.08337	3.20727E-09
1065.20789	3.19713E-09
1065.33228	3.18705E-09
1065.45679	3.17702E-09
1065.58118	3.16705E-09
1065.70569	3.15713E-09
1065.83008	3.14726E-09
1065.95459	3.13745E-09
1066.07898	3.12769E-09
1066.20349	3.11798E-09
1066.32788	3.10833E-09
1066.45239	3.09873E-09
1066.57678	3.08918E-09
1066.70129	3.07968E-09
1066.82581	3.07023E-09
1066.95020	3.06084E-09
1067.07471	3.05149E-09
1067.19910	3.04219E-09
1067.32361	3.03294E-09
1067.44800	3.02374E-09
1067.57251	3.01458E-09
1067.69690	3.00547E-09
1067.82141	2.99641E-09
1067.94580	2.98740E-09
1068.07031	2.97843E-09
1068.19470	2.96951E-09
1068.31921	2.96064E-09
1068.44360	2.95181E-09
1068.56812	2.94303E-09
1068.69263	2.93429E-09
1068.81702	2.92559E-09
1068.94153	2.91694E-09
1069.06592	2.90833E-09
1069.19043	2.89977E-09
1069.31482	2.89125E-09
1069.43933	2.88277E-09
1069.56372	2.87433E-09
1069.68823	2.86594E-09
1069.81262	2.85759E-09
1069.93713	2.84928E-09
1070.06152	2.84101E-09
1070.18604	2.83279E-09
1070.31043	2.82460E-09
1070.43494	2.81645E-09
1070.55945	2.80835E-09
1070.68384	2.80029E-09
1070.80835	2.79227E-09
1070.93274	2.78429E-09
1071.05725	2.77635E-09
1071.18164	2.76844E-09
1071.30615	2.76058E-09
1071.43054	2.75276E-09
1071.55505	2.74497E-09
1071.67944	2.73723E-09
1071.80396	2.72952E-09
1071.92835	2.72185E-09
1072.05286	2.71423E-09
1072.17725	2.70664E-09
1072.30176	2.69909E-09
1072.42627	2.69158E-09
1072.55066	2.68411E-09
1072.67517	2.67667E-09
1072.79956	2.66928E-09
1072.92407	2.66192E-09
1073.04846	2.65461E-09
1073.17297	2.64732E-09
1073.29736	2.64009E-09
1073.42188	2.63288E-09
1073.54627	2.62572E-09
1073.67078	2.61860E-09
1073.79517	2.61151E-09
1073.91968	2.60446E-09
1074.04407	2.59745E-09
1074.16858	2.59048E-09
1074.29309	2.58355E-09
1074.41748	2.57666E-09
1074.54199	2.56980E-09
1074.66638	2.56299E-09
1074.79089	2.55621E-09
1074.91528	2.54947E-09
1075.03980	2.54277E-09
1075.16419	2.53610E-09
1075.28870	2.52948E-09
1075.41309	2.52289E-09
1075.53760	2.51635E-09
1075.66199	2.50984E-09
1075.78650	2.50336E-09
1075.91089	2.49693E-09
1076.03540	2.49054E-09
1076.15979	2.48419E-09
1076.28430	2.47787E-09
1076.40881	2.47159E-09
1076.53320	2.46535E-09
1076.65772	2.45915E-09
1076.78210	2.45298E-09
1076.90662	2.44686E-09
1077.03101	2.44078E-09
1077.15552	2.43473E-09
1077.27991	2.42872E-09
1077.40442	2.42274E-09
1077.52881	2.41681E-09
1077.65332	2.41091E-09
1077.77771	2.40505E-09
1077.90222	2.39923E-09
1078.02661	2.39345E-09
1078.15112	2.38770E-09
1078.27564	2.38200E-09
1078.40002	2.37632E-09
1078.52454	2.37069E-09
1078.64893	2.36509E-09
1078.77344	2.35953E-09
1078.89783	2.35401E-09
1079.02234	2.34852E-09
1079.14673	2.34307E-09
1079.27124	2.33766E-09
1079.39563	2.33228E-09
1079.52014	2.32694E-09
1079.64453	2.32163E-09
1079.76904	2.31636E-09
1079.89343	2.31112E-09
1080.01794	2.30592E-09
1080.14246	2.30076E-09
1080.26685	2.29562E-09
1080.39136	2.29053E-09
1080.51575	2.28546E-09
1080.64026	2.28043E-09
1080.76465	2.27544E-09
1080.88916	2.27048E-09
1081.01355	2.26555E-09
1081.13806	2.26065E-09
1081.26245	2.25579E-09
1081.38696	2.25096E-09
1081.51135	2.24616E-09
1081.63586	2.24139E-09
1081.76025	2.23665E-09
1081.88477	2.23194E-09
1082.00928	2.22727E-09
1082.13367	2.22263E-09
1082.25818	2.21801E-09
1082.38257	2.21343E-09
1082.50708	2.20887E-09
1082.63147	2.20434E-09
1082.75598	2.19985E-09
1082.88037	2.19538E-09
1083.00488	2.19094E-09
1083.12927	2.18653E-09
1083.25378	2.18214E-09
1083.37817	2.17779E-09
1083.50269	2.17346E-09
1083.62708	2.16915E-09
1083.75159	2.16487E-09
1083.87610	2.16062E-09
1084.00049	2.15640E-09
1084.12500	2.15220E-09
1084.24939	2.14803E-09
1084.37390	2.14388E-09
1084.49829	2.13976E-09
1084.62280	2.13566E-09
1084.74719	2.13158E-09
1084.87170	2.12753E-09
1084.99609	2.12350E-09
1085.12061	2.11950E-09
1085.24500	2.11552E-09
1085.36951	2.11156E-09
1085.49390	2.10762E-09
1085.61841	2.10371E-09
1085.74292	2.09981E-09
1085.86731	2.09594E-09
1085.99182	2.09210E-09
1086.11621	2.08827E-09
1086.24072	2.08446E-09
1086.36511	2.08068E-09
1086.48962	2.07692E-09
1086.61401	2.07318E-09
1086.73853	2.06946E-09
1086.86292	2.06576E-09
1086.98743	2.06208E-09
1087.11182	2.05842E-09
1087.23633	2.05478E-09
1087.36072	2.05116E-09
1087.48523	2.04756E-09
1087.60974	2.04398E-09
1087.73413	2.04042E-09
1087.85864	2.03688E-09
1087.98303	2.03336E-09
1088.10754	2.02985E-09
1088.23193	2.02637E-09
1088.35645	2.02291E-09
1088.48084	2.01946E-09
1088.60535	2.01604E-09
1088.72974	2.01263E-09
1088.85425	2.00925E-09
1088.97864	2.00588E-09
1089.10315	2.00253E-09
1089.22754	1.99920E-09
1089.35205	1.99589E-09
1089.47656	1.99260E-09
1089.60095	1.98933E-09
1089.72546	1.98608E-09
1089.84985	1.98285E-09
1089.97437	1.97963E-09
1090.09876	1.97644E-09
1090.22327	1.97326E-09
1090.34766	1.97010E-09
1090.47217	1.96696E-09
1090.59656	1.96384E-09
1090.72107	1.96074E-09
1090.84546	1.95766E-09
1090.96997	1.95460E-09
1091.09436	1.95156E-09
1091.21887	1.94854E-09
1091.34338	1.94554E-09
1091.46777	1.94255E-09
1091.59229	1.93959E-09
1091.71668	1.93665E-09
1091.84119	1.93372E-09
1091.96558	1.93082E-09
1092.09009	1.92794E-09
1092.21448	1.92507E-09
1092.33899	1.92223E-09
1092.46338	1.91941E-09
1092.58789	1.91660E-09
1092.71228	1.91382E-09
1092.83679	1.91105E-09
1092.96118	1.90831E-09
1093.08569	1.90559E-09
1093.21021	1.90288E-09
1093.33460	1.90020E-09
1093.45911	1.89754E-09
1093.58350	1.89490E-09
1093.70801	1.89228E-09
1093.83240	1.88968E-09
1093.95691	1.88709E-09
1094.08130	1.88453E-09
1094.20581	1.88200E-09
1094.33020	1.87948E-09
1094.45471	1.87698E-09
1094.57910	1.87450E-09
1094.70361	1.87204E-09
1094.82800	1.86960E-09
1094.95252	1.86718E-09
1095.07703	1.86479E-09
1095.20142	1.86241E-09
1095.32593	1.86005E-09
1095.45032	1.85771E-09
1095.57483	1.85539E-09
1095.69922	1.85310E-09
1095.82373	1.85082E-09
1095.94812	1.84856E-09
1096.07263	1.84632E-09
1096.19702	1.84411E-09
1096.32153	1.84191E-09
1096.44592	1.83973E-09
1096.57044	1.83757E-09
1096.69482	1.83543E-09
1096.81934	1.83330E-09
1096.94385	1.83120E-09
1097.06824	1.82912E-09
1097.19275	1.82705E-09
1097.31714	1.82500E-09
1097.44165	1.82297E-09
1097.56604	1.82096E-09
1097.69055	1.81897E-09
1097.81494	1.81699E-09
1097.93945	1.81503E-09
1098.06384	1.81309E-09
1098.18835	1.81117E-09
1098.31274	1.80926E-09
1098.43726	1.80737E-09
1098.56165	1.80550E-09
1098.68616	1.80365E-09
1098.81055	1.80181E-09
1098.93506	1.79998E-09
1099.05957	1.79817E-09
1099.18396	1.79638E-09
1099.30847	1.79461E-09
1099.43286	1.79284E-09
1099.55737	1.79110E-09
1099.68176	1.78937E-09
1099.80627	1.78765E-09
1099.93066	1.78594E-09
1100.05518	1.78426E-09
1100.17957	1.78258E-09
1100.30408	1.78092E-09
1100.42847	1.77927E-09
1100.55298	1.77764E-09
1100.67737	1.77601E-09
1100.80188	1.77441E-09
1100.92639	1.77281E-09
1101.05078	1.77123E-09
1101.17529	1.76966E-09
1101.29968	1.76810E-09
1101.42419	1.76655E-09
1101.54858	1.76501E-09
1101.67310	1.76349E-09
1101.79749	1.76198E-09
1101.92200	1.76048E-09
1102.04639	1.75898E-09
1102.17090	1.75750E-09
1102.29529	1.75603E-09
1102.41980	1.75457E-09
1102.54419	1.75312E-09
1102.66870	1.75169E-09
1102.79321	1.75025E-09
1102.91760	1.74883E-09
1103.04211	1.74742E-09
1103.16650	1.74602E-09
1103.29102	1.74463E-09
1103.41541	1.74325E-09
1103.53992	1.74187E-09
1103.66431	1.74051E-09
1103.78882	1.73915E-09
1103.91321	1.73780E-09
1104.03772	1.73646E-09
1104.16211	1.73513E-09
1104.28662	1.73381E-09
1104.41101	1.73249E-09
1104.53552	1.73119E-09
1104.66003	1.72989E-09
1104.78442	1.72860E-09
1104.90894	1.72732E-09
1105.03333	1.72604E-09
1105.15784	1.72477E-09
1105.28223	1.72351E-09
1105.40674	1.72226E-09
1105.53113	1.72102E-09
1105.65564	1.71978E-09
1105.78003	1.71855E-09
1105.90454	1.71733E-09
1106.02893	1.71612E-09
1106.15344	1.71491E-09
1106.27783	1.71371E-09
1106.40234	1.71252E-09
1106.52686	1.71133E-09
1106.65125	1.71016E-09
1106.77576	1.70899E-09
1106.90015	1.70782E-09
1107.02466	1.70667E-09
1107.14905	1.70552E-09
1107.27356	1.70438E-09
1107.39795	1.70325E-09
1107.52246	1.70212E-09
1107.64685	1.70100E-09
1107.77136	1.69990E-09
1107.89575	1.69879E-09
1108.02026	1.69770E-09
1108.14465	1.69661E-09
1108.26917	1.69553E-09
1108.39368	1.69446E-09
1108.51807	1.69339E-09
1108.64258	1.69233E-09
1108.76697	1.69128E-09
1108.89148	1.69024E-09
1109.01587	1.68921E-09
1109.14038	1.68818E-09
1109.26477	1.68716E-09
1109.38928	1.68614E-09
1109.51367	1.68514E-09
1109.63818	1.68414E-09
1109.76257	1.68315E-09
1109.88709	1.68217E-09
1110.01148	1.68120E-09
1110.13599	1.68023E-09
1110.26050	1.67927E-09
1110.38489	1.67832E-09
1110.50940	1.67738E-09
1110.63379	1.67644E-09
1110.75830	1.67552E-09
1110.88269	1.67459E-09
1111.00720	1.67368E-09
1111.13159	1.67277E-09
1111.25610	1.67188E-09
1111.38049	1.67099E-09
1111.50501	1.67010E-09
1111.62940	1.66923E-09
1111.75391	1.66836E-09
1111.87830	1.66749E-09
1112.00281	1.66664E-09
1112.12732	1.66579E-09
1112.25171	1.66495E-09
1112.37622	1.66412E-09
1112.50061	1.66329E-09
1112.62512	1.66247E-09
1112.74951	1.66166E-09
1112.87402	1.66085E-09
1112.99841	1.66005E-09
1113.12293	1.65926E-09
1113.24731	1.65847E-09
1113.37183	1.65769E-09
1113.49622	1.65692E-09
1113.62073	1.65615E-09
1113.74512	1.65539E-09
1113.86963	1.65463E-09
1113.99414	1.65388E-09
1114.11853	1.65313E-09
1114.24304	1.65239E-09
1114.36743	1.65166E-09
1114.49194	1.65093E-09
1114.61633	1.65020E-09
1114.74085	1.64948E-09
1114.86523	1.64877E-09
1114.98975	1.64806E-09
1115.11414	1.64735E-09
1115.23865	1.64665E-09
1115.36304	1.64595E-09
1115.48755	1.64526E-09
1115.61194	1.64457E-09
1115.73645	1.64388E-09
1115.86096	1.64320E-09
1115.98535	1.64252E-09
1116.10986	1.64185E-09
1116.23425	1.64118E-09
1116.35877	1.64051E-09
1116.48315	1.63984E-09
1116.60767	1.63918E-09
1116.73206	1.63852E-09
1116.85657	1.63787E-09
1116.98096	1.63721E-09
1117.10547	1.63656E-09
1117.22986	1.63591E-09
1117.35437	1.63526E-09
1117.47876	1.63461E-09
1117.60327	1.63397E-09
1117.72778	1.63333E-09
1117.85217	1.63269E-09
1117.97669	1.63205E-09
1118.10107	1.63141E-09
1118.22559	1.63078E-09
1118.34998	1.63014E-09
1118.47449	1.62951E-09
1118.59888	1.62888E-09
1118.72339	1.62825E-09
1118.84778	1.62762E-09
1118.97229	1.62699E-09
1119.09668	1.62636E-09
1119.22119	1.62574E-09
1119.34558	1.62511E-09
1119.47009	1.62449E-09
1119.59448	1.62386E-09
1119.71899	1.62324E-09
1119.84351	1.62261E-09
1119.96790	1.62199E-09
1120.09241	1.62137E-09
1120.21680	1.62075E-09
1120.34131	1.62013E-09
1120.46570	1.61951E-09
1120.59021	1.61889E-09
1120.71460	1.61828E-09
1120.83911	1.61766E-09
1120.96350	1.61704E-09
1121.08801	1.61643E-09
1121.21240	1.61581E-09
1121.33691	1.61520E-09
1121.46130	1.61458E-09
1121.58582	1.61397E-09
1121.71033	1.61336E-09
1121.83472	1.61275E-09
1121.95923	1.61214E-09
1122.08362	1.61153E-09
1122.20813	1.61092E-09
1122.33252	1.61032E-09
1122.45703	1.60971E-09
1122.58142	1.60911E-09
1122.70593	1.60851E-09
1122.83032	1.60791E-09
1122.95483	1.60731E-09
1123.07922	1.60671E-09
1123.20374	1.60611E-09
1123.32813	1.60552E-09
1123.45264	1.60493E-09
1123.57715	1.60434E-09
1123.70154	1.60375E-09
1123.82605	1.60316E-09
1123.95044	1.60258E-09
1124.07495	1.60200E-09
1124.19934	1.60142E-09
1124.32385	1.60084E-09
1124.44824	1.60027E-09
1124.57275	1.59970E-09
1124.69714	1.59912E-09
1124.82166	1.59856E-09
1124.94605	1.59799E-09
1125.07056	1.59743E-09
1125.19495	1.59687E-09
1125.31946	1.59632E-09
1125.44397	1.59577E-09
1125.56836	1.59522E-09
1125.69287	1.59467E-09
1125.81726	1.59413E-09
1125.94177	1.59359E-09
1126.06616	1.59305E-09
1126.19067	1.59252E-09
1126.31506	1.59199E-09
1126.43958	1.59146E-09
1126.56397	1.59094E-09
1126.68848	1.59042E-09
1126.81287	1.58990E-09
1126.93738	1.58939E-09
1127.06177	1.58888E-09
1127.18628	1.58838E-09
1127.31079	1.58787E-09
1127.43518	1.58738E-09
1127.55969	1.58688E-09
1127.68408	1.58639E-09
1127.80859	1.58590E-09
1127.93298	1.58541E-09
1128.05750	1.58493E-09
1128.18189	1.58445E-09
1128.30640	1.58398E-09
1128.43079	1.58351E-09
1128.55530	1.58304E-09
1128.67969	1.58257E-09
1128.80420	1.58211E-09
1128.92859	1.58165E-09
1129.05310	1.58119E-09
1129.17761	1.58074E-09
1129.30200	1.58028E-09
1129.42651	1.57984E-09
1129.55090	1.57939E-09
1129.67542	1.57895E-09
1129.79981	1.57851E-09
1129.92432	1.57807E-09
1130.04871	1.57763E-09
1130.17322	1.57720E-09
1130.29761	1.57677E-09
1130.42212	1.57634E-09
1130.54651	1.57591E-09
1130.67102	1.57548E-09
1130.79541	1.57505E-09
1130.91992	1.57463E-09
1131.04443	1.57421E-09
1131.16882	1.57379E-09
1131.29334	1.57337E-09
1131.41773	1.57295E-09
1131.54224	1.57253E-09
1131.66663	1.57212E-09
1131.79114	1.57170E-09
1131.91553	1.57129E-09
1132.04004	1.57087E-09
1132.16443	1.57046E-09
1132.28894	1.57005E-09
1132.41333	1.56963E-09
1132.53784	1.56922E-09
1132.66223	1.56881E-09
1132.78674	1.56840E-09
1132.91126	1.56798E-09
1133.03565	1.56757E-09
1133.16016	1.56716E-09
1133.28455	1.56674E-09
1133.40906	1.56633E-09
1133.53345	1.56591E-09
1133.65796	1.56550E-09
1133.78235	1.56508E-09
1133.90686	1.56466E-09
1134.03125	1.56425E-09
1134.15576	1.56383E-09
1134.28015	1.56341E-09
1134.40466	1.56299E-09
1134.52905	1.56257E-09
1134.65356	1.56214E-09
1134.77808	1.56172E-09
1134.90247	1.56130E-09
1135.02698	1.56087E-09
1135.15137	1.56045E-09
1135.27588	1.56002E-09
1135.40027	1.55959E-09
1135.52478	1.55916E-09
1135.64917	1.55873E-09
1135.77368	1.55830E-09
1135.89807	1.55786E-09
1136.02258	1.55743E-09
1136.14697	1.55700E-09
1136.27148	1.55656E-09
1136.39587	1.55612E-09
1136.52039	1.55568E-09
1136.64490	1.55525E-09
1136.76929	1.55481E-09
1136.89380	1.55437E-09
1137.01819	1.55393E-09
1137.14270	1.55349E-09
1137.26709	1.55304E-09
1137.39160	1.55260E-09
1137.51599	1.55216E-09
1137.64050	1.55172E-09
1137.76489	1.55128E-09
1137.88940	1.55084E-09
1138.01379	1.55039E-09
1138.13831	1.54995E-09
1138.26270	1.54951E-09
1138.38721	1.54907E-09
1138.51172	1.54863E-09
1138.63611	1.54819E-09
1138.76062	1.54775E-09
1138.88501	1.54731E-09
1139.00952	1.54688E-09
1139.13391	1.54644E-09
1139.25842	1.54600E-09
1139.38281	1.54557E-09
1139.50732	1.54514E-09
1139.63171	1.54471E-09
1139.75623	1.54428E-09
1139.88062	1.54385E-09
1140.00513	1.54343E-09
1140.12952	1.54301E-09
1140.25403	1.54259E-09
1140.37854	1.54217E-09
1140.50293	1.54175E-09
1140.62744	1.54134E-09
1140.75183	1.54093E-09
1140.87634	1.54052E-09
1141.00073	1.54011E-09
1141.12524	1.53971E-09
1141.24963	1.53932E-09
1141.37415	1.53892E-09
1141.49854	1.53853E-09
1141.62305	1.53814E-09
1141.74744	1.53775E-09
1141.87195	1.53737E-09
1141.99634	1.53699E-09
1142.12085	1.53662E-09
1142.24524	1.53625E-09
1142.36975	1.53588E-09
1142.49426	1.53552E-09
1142.61865	1.53516E-09
1142.74316	1.53480E-09
1142.86755	1.53445E-09
1142.99207	1.53410E-09
1143.11646	1.53376E-09
1143.24097	1.53342E-09
1143.36536	1.53308E-09
1143.48987	1.53275E-09
1143.61426	1.53242E-09
1143.73877	1.53210E-09
1143.86316	1.53178E-09
1143.98767	1.53146E-09
1144.11206	1.53115E-09
1144.23657	1.53085E-09
1144.36108	1.53054E-09
1144.48547	1.53024E-09
1144.60999	1.52994E-09
1144.73438	1.52965E-09
1144.85889	1.52936E-09
1144.98328	1.52908E-09
1145.10779	1.52880E-09
1145.23218	1.52852E-09
1145.35669	1.52824E-09
1145.48108	1.52797E-09
1145.60559	1.52771E-09
1145.72998	1.52744E-09
1145.85449	1.52718E-09
1145.97888	1.52692E-09
1146.10339	1.52667E-09
1146.22791	1.52641E-09
1146.35230	1.52616E-09
1146.47681	1.52592E-09
1146.60120	1.52567E-09
1146.72571	1.52543E-09
1146.85010	1.52519E-09
1146.97461	1.52495E-09
1147.09900	1.52472E-09
1147.22351	1.52449E-09
1147.34790	1.52425E-09
1147.47241	1.52403E-09
1147.59680	1.52380E-09
1147.72131	1.52357E-09
1147.84570	1.52335E-09
1147.97022	1.52312E-09
1148.09473	1.52290E-09
1148.21912	1.52268E-09
1148.34363	1.52246E-09
1148.46802	1.52224E-09
1148.59253	1.52202E-09
1148.71692	1.52181E-09
1148.84143	1.52159E-09
1148.96582	1.52137E-09
1149.09033	1.52116E-09
1149.21472	1.52094E-09
1149.33923	1.52073E-09
1149.46362	1.52051E-09
1149.58814	1.52030E-09
1149.71252	1.52009E-09
1149.83704	1.51987E-09
1149.96155	1.51966E-09
1150.08594	1.51945E-09
1150.21045	1.51924E-09
1150.33484	1.51902E-09
1150.45935	1.51881E-09
1150.58374	1.51859E-09
1150.70825	1.51838E-09
1150.83264	1.51816E-09
1150.95715	1.51795E-09
1151.08154	1.51774E-09
1151.20606	1.51752E-09
1151.33044	1.51731E-09
1151.45496	1.51709E-09
1151.57935	1.51688E-09
1151.70386	1.51666E-09
1151.82837	1.51644E-09
1151.95276	1.51623E-09
1152.07727	1.51601E-09
1152.20166	1.51580E-09
1152.32617	1.51558E-09
1152.45056	1.51536E-09
1152.57507	1.51515E-09
1152.69946	1.51493E-09
1152.82398	1.51472E-09
1152.94836	1.51450E-09
1153.07288	1.51429E-09
1153.19727	1.51407E-09
1153.32178	1.51386E-09
1153.44617	1.51365E-09
1153.57068	1.51343E-09
1153.69519	1.51322E-09
1153.81958	1.51301E-09
1153.94409	1.51280E-09
1154.06848	1.51260E-09
1154.19299	1.51239E-09
1154.31738	1.51218E-09
1154.44190	1.51198E-09
1154.56628	1.51178E-09
1154.69080	1.51158E-09
1154.81519	1.51138E-09
1154.93970	1.51118E-09
1155.06409	1.51098E-09
1155.18860	1.51079E-09
1155.31299	1.51060E-09
1155.43750	1.51041E-09
1155.56201	1.51023E-09
1155.68640	1.51004E-09
1155.81091	1.50986E-09
1155.93530	1.50968E-09
1156.05981	1.50951E-09
1156.18420	1.50934E-09
1156.30872	1.50917E-09
1156.43311	1.50900E-09
1156.55762	1.50884E-09
1156.68201	1.50868E-09
1156.80652	1.50853E-09
1156.93091	1.50838E-09
1157.05542	1.50823E-09
1157.17981	1.50808E-09
1157.30432	1.50794E-09
1157.42883	1.50781E-09
1157.55322	1.50767E-09
1157.67773	1.50754E-09
1157.80212	1.50742E-09
1157.92664	1.50730E-09
1158.05103	1.50718E-09
1158.17554	1.50707E-09
1158.29993	1.50696E-09
1158.42444	1.50685E-09
1158.54883	1.50675E-09
1158.67334	1.50666E-09
1158.79773	1.50656E-09
1158.92224	1.50647E-09
1159.04663	1.50639E-09
1159.17114	1.50631E-09
1159.29565	1.50623E-09
1159.42004	1.50615E-09
1159.54456	1.50608E-09
1159.66895	1.50602E-09
1159.79346	1.50595E-09
1159.91785	1.50590E-09
1160.04236	1.50584E-09
1160.16675	1.50579E-09
1160.29126	1.50574E-09
1160.41565	1.50569E-09
1160.54016	1.50565E-09
1160.66455	1.50561E-09
1160.78906	1.50557E-09
1160.91345	1.50554E-09
1161.03796	1.50551E-09
1161.16248	1.50548E-09
1161.28687	1.50545E-09
1161.41138	1.50543E-09
1161.53577	1.50540E-09
1161.66028	1.50538E-09
1161.78467	1.50536E-09
1161.90918	1.50534E-09
1162.03357	1.50532E-09
1162.15808	1.50531E-09
1162.28247	1.50529E-09
1162.40698	1.50528E-09
1162.53137	1.50526E-09
1162.65588	1.50525E-09
1162.78027	1.50523E-09
1162.90479	1.50522E-09
1163.02930	1.50521E-09
1163.15369	1.50519E-09
1163.27820	1.50517E-09
1163.40259	1.50516E-09
1163.52710	1.50514E-09
1163.65149	1.50512E-09
1163.77600	1.50510E-09
1163.90039	1.50508E-09
1164.02490	1.50505E-09
1164.14929	1.50503E-09
1164.27380	1.50500E-09
1164.39819	1.50497E-09
1164.52271	1.50493E-09
1164.64710	1.50490E-09
1164.77161	1.50486E-09
1164.89600	1.50482E-09
1165.02051	1.50477E-09
1165.14502	1.50472E-09
1165.26941	1.50467E-09
1165.39392	1.50462E-09
1165.51831	1.50456E-09
1165.64282	1.50449E-09
1165.76721	1.50443E-09
1165.89172	1.50436E-09
1166.01611	1.50428E-09
1166.14063	1.50420E-09
1166.26502	1.50412E-09
1166.38953	1.50403E-09
1166.51392	1.50394E-09
1166.63843	1.50384E-09
1166.76282	1.50374E-09
1166.88733	1.50363E-09
1167.01184	1.50352E-09
1167.13623	1.50340E-09
1167.26074	1.50328E-09
1167.38513	1.50316E-09
1167.50964	1.50303E-09
1167.63403	1.50290E-09
1167.75855	1.50276E-09
1167.88294	1.50261E-09
1168.00745	1.50247E-09
1168.13184	1.50232E-09
1168.25635	1.50216E-09
1168.38074	1.50200E-09
1168.50525	1.50183E-09
1168.62964	1.50166E-09
1168.75415	1.50149E-09
1168.87866	1.50132E-09
1169.00305	1.50113E-09
1169.12756	1.50095E-09
1169.25195	1.50076E-09
1169.37647	1.50057E-09
1169.50085	1.50038E-09
1169.62537	1.50018E-09
1169.74976	1.49998E-09
1169.87427	1.49978E-09
1169.99866	1.49958E-09
1170.12317	1.49937E-09
1170.24756	1.49916E-09
1170.37207	1.49895E-09
1170.49646	1.49874E-09
1170.62097	1.49852E-09
1170.74548	1.49831E-09
1170.86987	1.49809E-09
1170.99439	1.49788E-09
1171.11877	1.49766E-09
1171.24329	1.49744E-09
1171.36768	1.49722E-09
1171.49219	1.49700E-09
1171.61658	1.49679E-09
1171.74109	1.49657E-09
1171.86548	1.49635E-09
1171.98999	1.49614E-09
1172.11438	1.49592E-09
1172.23889	1.49571E-09
1172.36328	1.49550E-09
1172.48779	1.49529E-09
1172.61231	1.49508E-09
1172.73669	1.49488E-09
1172.86121	1.49467E-09
1172.98560	1.49448E-09
1173.11011	1.49428E-09
1173.23450	1.49408E-09
1173.35901	1.49389E-09
1173.48340	1.49371E-09
1173.60791	1.49352E-09
1173.73230	1.49334E-09
1173.85681	1.49317E-09
1173.98120	1.49300E-09
1174.10571	1.49283E-09
1174.23010	1.49267E-09
1174.35461	1.49251E-09
1174.47913	1.49236E-09
1174.60352	1.49221E-09
1174.72803	1.49206E-09
1174.85242	1.49193E-09
1174.97693	1.49179E-09
1175.10132	1.49166E-09
1175.22583	1.49154E-09
1175.35022	1.49142E-09
1175.47473	1.49131E-09
1175.59912	1.49121E-09
1175.72363	1.49110E-09
1175.84802	1.49101E-09
1175.97253	1.49092E-09
1176.09692	1.49084E-09
1176.22144	1.49076E-09
1176.34595	1.49069E-09
1176.47034	1.49062E-09
1176.59485	1.49056E-09
1176.71924	1.49050E-09
1176.84375	1.49045E-09
1176.96814	1.49041E-09
1177.09265	1.49037E-09
1177.21704	1.49033E-09
1177.34155	1.49031E-09
1177.46594	1.49028E-09
1177.59045	1.49026E-09
1177.71484	1.49025E-09
1177.83936	1.49024E-09
1177.96375	1.49024E-09
1178.08826	1.49024E-09
1178.21277	1.49024E-09
1178.33716	1.49025E-09
1178.46167	1.49026E-09
1178.58606	1.49028E-09
1178.71057	1.49030E-09
1178.83496	1.49033E-09
1178.95947	1.49035E-09
1179.08386	1.49039E-09
1179.20837	1.49042E-09
1179.33276	1.49046E-09
1179.45728	1.49050E-09
1179.58167	1.49054E-09
1179.70618	1.49058E-09
1179.83057	1.49063E-09
1179.95508	1.49068E-09
1180.07959	1.49073E-09
1180.20398	1.49078E-09
1180.32849	1.49084E-09
1180.45288	1.49089E-09
1180.57739	1.49094E-09
1180.70178	1.49100E-09
1180.82629	1.49106E-09
1180.95068	1.49111E-09
1181.07520	1.49117E-09
1181.19959	1.49122E-09
1181.32410	1.49128E-09
1181.44849	1.49133E-09
1181.57300	1.49139E-09
1181.69739	1.49144E-09
1181.82190	1.49150E-09
1181.94641	1.49155E-09
1182.07080	1.49160E-09
1182.19531	1.49164E-09
1182.31970	1.49169E-09
1182.44421	1.49173E-09
1182.56860	1.49177E-09
1182.69312	1.49181E-09
1182.81751	1.49185E-09
1182.94202	1.49188E-09
1183.06641	1.49191E-09
1183.19092	1.49194E-09
1183.31531	1.49196E-09
1183.43982	1.49199E-09
1183.56421	1.49201E-09
1183.68872	1.49202E-09
1183.81323	1.49203E-09
1183.93762	1.49204E-09
1184.06213	1.49205E-09
1184.18652	1.49205E-09
1184.31104	1.49205E-09
1184.43543	1.49204E-09
1184.55994	1.49203E-09
1184.68433	1.49202E-09
1184.80884	1.49200E-09
1184.93323	1.49198E-09
1185.05774	1.49196E-09
1185.18213	1.49193E-09
1185.30664	1.49190E-09
1185.43103	1.49186E-09
1185.55554	1.49182E-09
1185.68005	1.49178E-09
1185.80444	1.49173E-09
1185.92896	1.49168E-09
1186.05335	1.49163E-09
1186.17786	1.49157E-09
1186.30225	1.49151E-09
1186.42676	1.49145E-09
1186.55115	1.49138E-09
1186.67566	1.49131E-09
1186.80005	1.49124E-09
1186.92456	1.49116E-09
1187.04895	1.49108E-09
1187.17346	1.49100E-09
1187.29785	1.49092E-09
1187.42236	1.49083E-09
1187.54675	1.49075E-09
1187.67127	1.49066E-09
1187.79578	1.49057E-09
1187.92017	1.49047E-09
1188.04468	1.49038E-09
1188.16907	1.49028E-09
1188.29358	1.49018E-09
1188.41797	1.49009E-09
1188.54248	1.48999E-09
1188.66687	1.48988E-09
1188.79138	1.48978E-09
1188.91577	1.48968E-09
1189.04028	1.48958E-09
1189.16467	1.48948E-09
1189.28919	1.48938E-09
1189.41357	1.48928E-09
1189.53809	1.48917E-09
1189.66260	1.48907E-09
1189.78699	1.48897E-09
1189.91150	1.48887E-09
1190.03589	1.48878E-09
1190.16040	1.48868E-09
1190.28479	1.48858E-09
1190.40930	1.48849E-09
1190.53369	1.48840E-09
1190.65820	1.48831E-09
1190.78259	1.48822E-09
1190.90710	1.48813E-09
1191.03149	1.48804E-09
1191.15601	1.48796E-09
1191.28040	1.48788E-09
1191.40491	1.48780E-09
1191.52942	1.48772E-09
1191.65381	1.48765E-09
1191.77832	1.48758E-09
1191.90271	1.48751E-09
1192.02722	1.48745E-09
1192.15161	1.48738E-09
1192.27612	1.48732E-09
1192.40051	1.48727E-09
1192.52502	1.48721E-09
1192.64941	1.48716E-09
1192.77393	1.48711E-09
1192.89832	1.48707E-09
1193.02283	1.48703E-09
1193.14722	1.48699E-09
1193.27173	1.48696E-09
1193.39624	1.48693E-09
1193.52063	1.48690E-09
1193.64514	1.48688E-09
1193.76953	1.48685E-09
1193.89404	1.48684E-09
1194.01843	1.48682E-09
1194.14294	1.48681E-09
1194.26733	1.48680E-09
1194.39185	1.48680E-09
1194.51624	1.48679E-09
1194.64075	1.48679E-09
1194.76514	1.48680E-09
1194.88965	1.48680E-09
1195.01404	1.48681E-09
1195.13855	1.48682E-09
1195.26306	1.48684E-09
1195.38745	1.48685E-09
1195.51196	1.48687E-09
1195.63635	1.48690E-09
1195.76086	1.48692E-09
1195.88525	1.48695E-09
1196.00977	1.48697E-09
1196.13416	1.48700E-09
1196.25867	1.48704E-09
1196.38306	1.48707E-09
1196.50757	1.48711E-09
1196.63196	1.48714E-09
1196.75647	1.48718E-09
1196.88086	1.48722E-09
1197.00537	1.48726E-09
1197.12988	1.48731E-09
1197.25427	1.48735E-09
1197.37878	1.48740E-09
1197.50317	1.48744E-09
1197.62769	1.48749E-09
1197.75208	1.48754E-09
1197.87659	1.48758E-09
1198.00098	1.48763E-09
1198.12549	1.48768E-09
1198.24988	1.48773E-09
1198.37439	1.48778E-09
1198.49878	1.48783E-09
1198.62329	1.48788E-09
1198.74768	1.48793E-09
1198.87219	1.48798E-09
1198.99670	1.48803E-09
1199.12109	1.48807E-09
1199.24561	1.48812E-09
1199.37000	1.48817E-09
1199.49451	1.48822E-09
1199.61890	1.48826E-09
1199.74341	1.48831E-09
1199.86780	1.48835E-09
1199.99231	1.48840E-09
1200.11670	1.48844E-09
1200.24121	1.48848E-09
1200.36560	1.48853E-09
1200.49011	1.48857E-09
1200.61450	1.48861E-09
1200.73901	1.48865E-09
1200.86353	1.48869E-09
1200.98792	1.48872E-09
1201.11243	1.48876E-09
1201.23682	1.48880E-09
1201.36133	1.48883E-09
1201.48572	1.48886E-09
1201.61023	1.48890E-09
1201.73462	1.48893E-09
1201.85913	1.48896E-09
1201.98352	1.48899E-09
1202.10803	1.48902E-09
1202.23242	1.48904E-09
1202.35693	1.48907E-09
1202.48132	1.48910E-09
1202.60584	1.48912E-09
1202.73035	1.48915E-09
1202.85474	1.48917E-09
1202.97925	1.48920E-09
1203.10364	1.48922E-09
1203.22815	1.48924E-09
1203.35254	1.48926E-09
1203.47705	1.48928E-09
1203.60144	1.48931E-09
1203.72595	1.48933E-09
1203.85034	1.48934E-09
1203.97485	1.48937E-09
1204.09924	1.48939E-09
1204.22376	1.48941E-09
1204.34815	1.48943E-09
1204.47266	1.48945E-09
1204.59717	1.48947E-09
1204.72156	1.48949E-09
1204.84607	1.48951E-09
1204.97046	1.48953E-09
1205.09497	1.48955E-09
1205.21936	1.48957E-09
1205.34387	1.48960E-09
1205.46826	1.48962E-09
1205.59277	1.48964E-09
1205.71716	1.48967E-09
1205.84168	1.48969E-09
1205.96606	1.48972E-09
1206.09058	1.48975E-09
1206.21497	1.48978E-09
1206.33948	1.48981E-09
1206.46399	1.48984E-09
1206.58838	1.48987E-09
1206.71289	1.48990E-09
1206.83728	1.48993E-09
1206.96179	1.48997E-09
1207.08618	1.49001E-09
1207.21069	1.49004E-09
1207.33508	1.49008E-09
1207.45960	1.49012E-09
1207.58398	1.49016E-09
1207.70850	1.49020E-09
1207.83289	1.49025E-09
1207.95740	1.49029E-09
1208.08179	1.49034E-09
1208.20630	1.49039E-09
1208.33069	1.49044E-09
1208.45520	1.49049E-09
1208.57971	1.49054E-09
1208.70410	1.49059E-09
1208.82861	1.49064E-09
1208.95300	1.49070E-09
1209.07752	1.49076E-09
1209.20190	1.49081E-09
1209.32642	1.49087E-09
1209.45081	1.49093E-09
1209.57532	1.49100E-09
1209.69971	1.49106E-09
1209.82422	1.49112E-09
1209.94861	1.49119E-09
1210.07312	1.49125E-09
1210.19751	1.49132E-09
1210.32202	1.49139E-09
1210.44653	1.49145E-09
1210.57092	1.49152E-09
1210.69544	1.49159E-09
1210.81982	1.49166E-09
1210.94434	1.49174E-09
1211.06873	1.49181E-09
1211.19324	1.49188E-09
1211.31763	1.49195E-09
1211.44214	1.49202E-09
1211.56653	1.49210E-09
1211.69104	1.49217E-09
1211.81543	1.49224E-09
1211.93994	1.49232E-09
1212.06433	1.49239E-09
1212.18884	1.49247E-09
1212.31335	1.49254E-09
1212.43774	1.49261E-09
1212.56226	1.49269E-09
1212.68665	1.49276E-09
1212.81116	1.49283E-09
1212.93555	1.49290E-09
1213.06006	1.49298E-09
1213.18445	1.49305E-09
1213.30896	1.49312E-09
1213.43335	1.49319E-09
1213.55786	1.49326E-09
1213.68225	1.49333E-09
1213.80676	1.49340E-09
1213.93115	1.49347E-09
1214.05566	1.49353E-09
1214.18018	1.49360E-09
1214.30457	1.49367E-09
1214.42908	1.49373E-09
1214.55347	1.49380E-09
1214.67798	1.49386E-09
1214.80237	1.49392E-09
1214.92688	1.49399E-09
1215.05127	1.49405E-09
1215.17578	1.49411E-09
1215.30017	1.49417E-09
1215.42468	1.49422E-09
1215.54907	1.49428E-09
1215.67358	1.49434E-09
1215.79797	1.49439E-09
1215.92249	1.49445E-09
1216.04700	1.49450E-09
1216.17139	1.49456E-09
1216.29590	1.49461E-09
1216.42029	1.49466E-09
1216.54480	1.49471E-09
1216.66919	1.49476E-09
1216.79370	1.49481E-09
1216.91809	1.49486E-09
1217.04260	1.49491E-09
1217.16699	1.49496E-09
1217.29150	1.49501E-09
1217.41589	1.49506E-09
1217.54041	1.49511E-09
1217.66480	1.49515E-09
1217.78931	1.49520E-09
1217.91382	1.49525E-09
1218.03821	1.49530E-09
1218.16272	1.49534E-09
1218.28711	1.49539E-09
1218.41162	1.49544E-09
1218.53601	1.49549E-09
1218.66052	1.49554E-09
1218.78491	1.49559E-09
1218.90942	1.49564E-09
1219.03381	1.49569E-09
1219.15833	1.49574E-09
1219.28272	1.49579E-09
1219.40723	1.49584E-09
1219.53162	1.49590E-09
1219.65613	1.49595E-09
1219.78064	1.49601E-09
1219.90503	1.49606E-09
1220.02954	1.49612E-09
1220.15393	1.49618E-09
1220.27844	1.49624E-09
1220.40283	1.49630E-09
1220.52734	1.49637E-09
1220.65173	1.49643E-09
1220.77625	1.49650E-09
1220.90064	1.49656E-09
1221.02515	1.49663E-09
1221.14954	1.49670E-09
1221.27405	1.49678E-09
1221.39844	1.49685E-09
1221.52295	1.49693E-09
1221.64746	1.49701E-09
1221.77185	1.49709E-09
1221.89636	1.49717E-09
1222.02075	1.49726E-09
1222.14526	1.49734E-09
1222.26965	1.49743E-09
1222.39417	1.49752E-09
1222.51856	1.49762E-09
1222.64307	1.49771E-09
1222.76746	1.49781E-09
1222.89197	1.49790E-09
1223.01636	1.49801E-09
1223.14087	1.49811E-09
1223.26526	1.49821E-09
1223.38977	1.49832E-09
1223.51428	1.49843E-09
1223.63867	1.49854E-09
1223.76318	1.49866E-09
1223.88757	1.49877E-09
1224.01209	1.49889E-09
1224.13648	1.49901E-09
1224.26099	1.49913E-09
1224.38538	1.49926E-09
1224.50989	1.49938E-09
1224.63428	1.49951E-09
1224.75879	1.49964E-09
1224.88318	1.49977E-09
1225.00769	1.49990E-09
1225.13208	1.50003E-09
1225.25659	1.50017E-09
1225.38110	1.50030E-09
1225.50549	1.50044E-09
1225.63001	1.50058E-09
1225.75440	1.50072E-09
1225.87891	1.50086E-09
1226.00330	1.50100E-09
1226.12781	1.50115E-09
1226.25220	1.50129E-09
1226.37671	1.50143E-09
1226.50110	1.50158E-09
1226.62561	1.50173E-09
1226.75000	1.50187E-09
1226.87451	1.50202E-09
1226.99890	1.50217E-09
1227.12341	1.50232E-09
1227.24793	1.50247E-09
1227.37231	1.50262E-09
1227.49683	1.50277E-09
1227.62122	1.50292E-09
1227.74573	1.50307E-09
1227.87012	1.50322E-09
1227.99463	1.50337E-09
1228.11902	1.50351E-09
1228.24353	1.50366E-09
1228.36792	1.50381E-09
1228.49243	1.50396E-09
1228.61682	1.50411E-09
1228.74133	1.50425E-09
1228.86572	1.50440E-09
1228.99023	1.50454E-09
1229.11475	1.50469E-09
1229.23914	1.50483E-09
1229.36365	1.50498E-09
1229.48804	1.50512E-09
1229.61255	1.50526E-09
1229.73694	1.50540E-09
1229.86145	1.50554E-09
1229.98584	1.50568E-09
1230.11035	1.50582E-09
1230.23474	1.50596E-09
1230.35925	1.50610E-09
1230.48364	1.50623E-09
1230.60815	1.50637E-09
1230.73254	1.50650E-09
1230.85706	1.50664E-09
1230.98145	1.50677E-09
1231.10596	1.50690E-09
1231.23047	1.50703E-09
1231.35486	1.50716E-09
1231.47937	1.50729E-09
1231.60376	1.50742E-09
1231.72827	1.50754E-09
1231.85266	1.50767E-09
1231.97717	1.50779E-09
1232.10156	1.50792E-09
1232.22607	1.50804E-09
1232.35046	1.50817E-09
1232.47498	1.50829E-09
1232.59937	1.50841E-09
1232.72388	1.50853E-09
1232.84827	1.50865E-09
1232.97278	1.50877E-09
1233.09729	1.50890E-09
1233.22168	1.50902E-09
1233.34619	1.50914E-09
1233.47058	1.50926E-09
1233.59509	1.50938E-09
1233.71948	1.50950E-09
1233.84399	1.50962E-09
1233.96838	1.50974E-09
1234.09290	1.50987E-09
1234.21729	1.50999E-09
1234.34180	1.51011E-09
1234.46619	1.51024E-09
1234.59070	1.51036E-09
1234.71509	1.51049E-09
1234.83960	1.51061E-09
1234.96411	1.51074E-09
1235.08850	1.51086E-09
1235.21301	1.51099E-09
1235.33740	1.51112E-09
1235.46191	1.51125E-09
1235.58630	1.51139E-09
1235.71082	1.51152E-09
1235.83521	1.51165E-09
1235.95972	1.51179E-09
1236.08411	1.51193E-09
1236.20862	1.51207E-09
1236.33301	1.51221E-09
1236.45752	1.51235E-09
1236.58191	1.51249E-09
1236.70642	1.51264E-09
1236.83093	1.51279E-09
1236.95532	1.51294E-09
1237.07983	1.51309E-09
1237.20422	1.51324E-09
1237.32874	1.51340E-09
1237.45313	1.51355E-09
1237.57764	1.51371E-09
1237.70203	1.51387E-09
1237.82654	1.51404E-09
1237.95093	1.51420E-09
1238.07544	1.51437E-09
1238.19983	1.51454E-09
1238.32434	1.51471E-09
1238.44873	1.51488E-09
1238.57324	1.51506E-09
1238.69775	1.51524E-09
1238.82214	1.51542E-09
1238.94666	1.51560E-09
1239.07105	1.51578E-09
1239.19556	1.51597E-09
1239.31995	1.51615E-09
1239.44446	1.51634E-09
1239.56885	1.51653E-09
1239.69336	1.51673E-09
1239.81775	1.51692E-09
1239.94226	1.51711E-09
1240.06665	1.51731E-09
1240.19116	1.51751E-09
1240.31555	1.51771E-09
1240.44006	1.51791E-09
1240.56458	1.51811E-09
1240.68897	1.51832E-09
1240.81348	1.51852E-09
1240.93787	1.51873E-09
1241.06238	1.51894E-09
1241.18677	1.51915E-09
1241.31128	1.51936E-09
1241.43567	1.51957E-09
1241.56018	1.51978E-09
1241.68457	1.51999E-09
1241.80908	1.52020E-09
1241.93347	1.52042E-09
1242.05798	1.52063E-09
1242.18237	1.52084E-09
1242.30689	1.52105E-09
1242.43140	1.52127E-09
1242.55579	1.52148E-09
1242.68030	1.52169E-09
1242.80469	1.52191E-09
1242.92920	1.52212E-09
1243.05359	1.52233E-09
1243.17810	1.52255E-09
1243.30249	1.52276E-09
1243.42700	1.52297E-09
1243.55139	1.52318E-09
1243.67590	1.52339E-09
1243.80029	1.52360E-09
1243.92481	1.52381E-09
1244.04919	1.52402E-09
1244.17371	1.52423E-09
1244.29822	1.52444E-09
1244.42261	1.52464E-09
1244.54712	1.52485E-09
1244.67151	1.52505E-09
1244.79602	1.52526E-09
1244.92041	1.52546E-09
1245.04492	1.52566E-09
1245.16931	1.52586E-09
1245.29382	1.52606E-09
1245.41821	1.52626E-09
1245.54273	1.52645E-09
1245.66711	1.52665E-09
1245.79163	1.52684E-09
1245.91602	1.52704E-09
1246.04053	1.52723E-09
1246.16504	1.52742E-09
1246.28943	1.52761E-09
1246.41394	1.52780E-09
1246.53833	1.52799E-09
1246.66284	1.52818E-09
1246.78723	1.52837E-09
1246.91174	1.52855E-09
1247.03613	1.52874E-09
1247.16065	1.52892E-09
1247.28503	1.52910E-09
1247.40955	1.52929E-09
1247.53394	1.52947E-09
1247.65845	1.52965E-09
1247.78284	1.52983E-09
1247.90735	1.53001E-09
1248.03186	1.53019E-09
1248.15625	1.53037E-09
1248.28076	1.53055E-09
1248.40515	1.53073E-09
1248.52966	1.53091E-09
1248.65405	1.53108E-09
1248.77856	1.53126E-09
1248.90295	1.53144E-09
1249.02747	1.53162E-09
1249.15186	1.53180E-09
1249.27637	1.53198E-09
1249.40076	1.53216E-09
1249.52527	1.53234E-09
1249.64966	1.53252E-09
1249.77417	1.53270E-09
1249.89868	1.53289E-09
1250.02307	1.53307E-09
1250.14758	1.53325E-09
1250.27197	1.53344E-09
1250.39648	1.53363E-09
1250.52087	1.53381E-09
1250.64539	1.53400E-09
1250.76978	1.53420E-09
1250.89429	1.53439E-09
1251.01868	1.53458E-09
1251.14319	1.53477E-09
1251.26758	1.53497E-09
1251.39209	1.53517E-09
1251.51648	1.53537E-09
1251.64099	1.53557E-09
1251.76550	1.53578E-09
1251.88989	1.53598E-09
1252.01440	1.53619E-09
1252.13879	1.53640E-09
1252.26331	1.53661E-09
1252.38770	1.53683E-09
1252.51221	1.53704E-09
1252.63660	1.53726E-09
1252.76111	1.53748E-09
1252.88550	1.53771E-09
1253.01001	1.53793E-09
1253.13440	1.53816E-09
1253.25891	1.53839E-09
1253.38330	1.53862E-09
1253.50781	1.53885E-09
1253.63220	1.53909E-09
1253.75671	1.53933E-09
1253.88123	1.53957E-09
1254.00562	1.53981E-09
1254.13013	1.54005E-09
1254.25452	1.54030E-09
1254.37903	1.54054E-09
1254.50342	1.54079E-09
1254.62793	1.54104E-09
1254.75232	1.54130E-09
1254.87683	1.54155E-09
1255.00122	1.54181E-09
1255.12573	1.54206E-09
1255.25012	1.54232E-09
1255.37463	1.54258E-09
1255.49902	1.54284E-09
1255.62354	1.54310E-09
1255.74805	1.54337E-09
1255.87244	1.54363E-09
1255.99695	1.54390E-09
1256.12134	1.54416E-09
1256.24585	1.54443E-09
1256.37024	1.54470E-09
1256.49475	1.54496E-09
1256.61914	1.54523E-09
1256.74365	1.54550E-09
1256.86804	1.54577E-09
1256.99255	1.54603E-09
1257.11694	1.54630E-09
1257.24146	1.54657E-09
1257.36585	1.54683E-09
1257.49036	1.54710E-09
1257.61487	1.54737E-09
1257.73926	1.54763E-09
1257.86377	1.54789E-09
1257.98816	1.54816E-09
1258.11267	1.54842E-09
1258.23706	1.54868E-09
1258.36157	1.54894E-09
1258.48596	1.54919E-09
1258.61047	1.54945E-09
1258.73486	1.54970E-09
1258.85938	1.54995E-09
1258.98377	1.55020E-09
1259.10828	1.55045E-09
1259.23267	1.55070E-09
1259.35718	1.55094E-09
1259.48169	1.55118E-09
1259.60608	1.55142E-09
1259.73059	1.55165E-09
1259.85498	1.55189E-09
1259.97949	1.55212E-09
1260.10388	1.55234E-09
1260.22839	1.55257E-09
1260.35278	1.55279E-09
1260.47730	1.55301E-09
1260.60169	1.55323E-09
1260.72620	1.55344E-09
1260.85059	1.55365E-09
1260.97510	1.55385E-09
1261.09949	1.55406E-09
1261.22400	1.55426E-09
1261.34851	1.55445E-09
1261.47290	1.55465E-09
1261.59741	1.55484E-09
1261.72180	1.55502E-09
1261.84631	1.55521E-09
1261.97070	1.55539E-09
1262.09522	1.55557E-09
1262.21960	1.55574E-09
1262.34412	1.55591E-09
1262.46851	1.55608E-09
1262.59302	1.55624E-09
1262.71741	1.55641E-09
1262.84192	1.55656E-09
1262.96631	1.55672E-09
1263.09082	1.55687E-09
1263.21533	1.55702E-09
1263.33972	1.55717E-09
1263.46423	1.55732E-09
1263.58862	1.55746E-09
1263.71314	1.55760E-09
1263.83752	1.55773E-09
1263.96204	1.55787E-09
1264.08643	1.55800E-09
1264.21094	1.55813E-09
1264.33533	1.55826E-09
1264.45984	1.55839E-09
1264.58423	1.55851E-09
1264.70874	1.55863E-09
1264.83313	1.55876E-09
1264.95764	1.55887E-09
1265.08215	1.55899E-09
1265.20654	1.55911E-09
1265.33106	1.55922E-09
1265.45544	1.55934E-09
1265.57996	1.55945E-09
1265.70435	1.55956E-09
1265.82886	1.55968E-09
1265.95325	1.55979E-09
1266.07776	1.55990E-09
1266.20215	1.56001E-09
1266.32666	1.56011E-09
1266.45105	1.56022E-09
1266.57556	1.56033E-09
1266.69995	1.56044E-09
1266.82446	1.56055E-09
1266.94898	1.56066E-09
1267.07336	1.56076E-09
1267.19788	1.56087E-09
1267.32227	1.56098E-09
1267.44678	1.56109E-09
1267.57117	1.56120E-09
1267.69568	1.56131E-09
1267.82007	1.56142E-09
1267.94458	1.56153E-09
1268.06897	1.56164E-09
1268.19348	1.56176E-09
1268.31787	1.56187E-09
1268.44238	1.56198E-09
1268.56677	1.56210E-09
1268.69128	1.56222E-09
1268.81580	1.56233E-09
1268.94019	1.56245E-09
1269.06470	1.56257E-09
1269.18909	1.56269E-09
1269.31360	1.56281E-09
1269.43799	1.56294E-09
1269.56250	1.56306E-09
1269.68689	1.56318E-09
1269.81140	1.56331E-09
1269.93579	1.56343E-09
1270.06030	1.56356E-09
1270.18469	1.56369E-09
1270.30920	1.56382E-09
1270.43359	1.56395E-09
1270.55811	1.56408E-09
1270.68262	1.56421E-09
1270.80701	1.56434E-09
1270.93152	1.56447E-09
1271.05591	1.56461E-09
1271.18042	1.56474E-09
1271.30481	1.56488E-09
1271.42932	1.56501E-09
1271.55371	1.56515E-09
1271.67822	1.56528E-09
1271.80261	1.56542E-09
1271.92712	1.56555E-09
1272.05151	1.56569E-09
1272.17603	1.56583E-09
1272.30042	1.56596E-09
1272.42493	1.56610E-09
1272.54944	1.56624E-09
1272.67383	1.56637E-09
1272.79834	1.56651E-09
1272.92273	1.56664E-09
1273.04724	1.56678E-09
1273.17163	1.56691E-09
1273.29614	1.56704E-09
1273.42053	1.56718E-09
1273.54504	1.56731E-09
1273.66943	1.56744E-09
1273.79395	1.56757E-09
1273.91834	1.56769E-09
1274.04285	1.56782E-09
1274.16724	1.56795E-09
1274.29175	1.56807E-09
1274.41626	1.56819E-09
1274.54065	1.56831E-09
1274.66516	1.56843E-09
1274.78955	1.56855E-09
1274.91406	1.56867E-09
1275.03845	1.56878E-09
1275.16296	1.56889E-09
1275.28735	1.56900E-09
1275.41187	1.56911E-09
1275.53626	1.56922E-09
1275.66077	1.56933E-09
1275.78516	1.56943E-09
1275.90967	1.56953E-09
1276.03406	1.56963E-09
1276.15857	1.56973E-09
1276.28296	1.56982E-09
1276.40747	1.56992E-09
1276.53198	1.57001E-09
1276.65637	1.57010E-09
1276.78088	1.57019E-09
1276.90527	1.57027E-09
1277.02979	1.57036E-09
1277.15418	1.57044E-09
1277.27869	1.57052E-09
1277.40308	1.57060E-09
1277.52759	1.57068E-09
1277.65198	1.57075E-09
1277.77649	1.57083E-09
1277.90088	1.57090E-09
1278.02539	1.57097E-09
1278.14978	1.57104E-09
1278.27429	1.57111E-09
1278.39880	1.57118E-09
1278.52319	1.57124E-09
1278.64771	1.57131E-09
1278.77210	1.57137E-09
1278.89661	1.57144E-09
1279.02100	1.57150E-09
1279.14551	1.57156E-09
1279.26990	1.57163E-09
1279.39441	1.57169E-09
1279.51880	1.57175E-09
1279.64331	1.57181E-09
1279.76770	1.57188E-09
1279.89221	1.57194E-09
1280.01660	1.57200E-09
1280.14111	1.57207E-09
1280.26563	1.57213E-09
1280.39002	1.57219E-09
1280.51453	1.57226E-09
1280.63892	1.57233E-09
1280.76343	1.57239E-09
1280.88782	1.57246E-09
1281.01233	1.57253E-09
1281.13672	1.57261E-09
1281.26123	1.57268E-09
1281.38562	1.57276E-09
1281.51013	1.57283E-09
1281.63452	1.57291E-09
1281.75903	1.57299E-09
1281.88342	1.57308E-09
1282.00794	1.57317E-09
1282.13245	1.57326E-09
1282.25684	1.57335E-09
1282.38135	1.57344E-09
1282.50574	1.57354E-09
1282.63025	1.57364E-09
1282.75464	1.57375E-09
1282.87915	1.57386E-09
1283.00354	1.57397E-09
1283.12805	1.57408E-09
1283.25244	1.57420E-09
1283.37695	1.57432E-09
1283.50134	1.57444E-09
1283.62585	1.57457E-09
1283.75024	1.57470E-09
1283.87476	1.57484E-09
1283.99927	1.57498E-09
1284.12366	1.57512E-09
1284.24817	1.57526E-09
1284.37256	1.57541E-09
1284.49707	1.57557E-09
1284.62146	1.57573E-09
1284.74597	1.57589E-09
1284.87036	1.57605E-09
1284.99487	1.57622E-09
1285.11926	1.57640E-09
1285.24377	1.57657E-09
1285.36816	1.57675E-09
1285.49268	1.57693E-09
1285.61707	1.57712E-09
1285.74158	1.57731E-09
1285.86609	1.57750E-09
1285.99048	1.57770E-09
1286.11499	1.57790E-09
1286.23938	1.57810E-09
1286.36389	1.57831E-09
1286.48828	1.57852E-09
1286.61279	1.57873E-09
1286.73718	1.57895E-09
1286.86169	1.57916E-09
1286.98608	1.57938E-09
1287.11060	1.57960E-09
1287.23499	1.57983E-09
1287.35950	1.58006E-09
1287.48389	1.58028E-09
1287.60840	1.58051E-09
1287.73291	1.58074E-09
1287.85730	1.58098E-09
1287.98181	1.58121E-09
1288.10620	1.58145E-09
1288.23071	1.58168E-09
1288.35510	1.58192E-09
1288.47961	1.58216E-09
1288.60400	1.58240E-09
1288.72852	1.58264E-09
1288.85291	1.58288E-09
1288.97742	1.58312E-09
1289.10181	1.58336E-09
1289.22632	1.58360E-09
1289.35071	1.58384E-09
1289.47522	1.58408E-09
1289.59973	1.58431E-09
1289.72412	1.58455E-09
1289.84863	1.58479E-09
1289.97302	1.58502E-09
1290.09753	1.58526E-09
1290.22192	1.58549E-09
1290.34644	1.58572E-09
1290.47083	1.58595E-09
1290.59534	1.58618E-09
1290.71973	1.58640E-09
1290.84424	1.58662E-09
1290.96863	1.58684E-09
1291.09314	1.58706E-09
1291.21753	1.58728E-09
1291.34204	1.58749E-09
1291.46655	1.58770E-09
1291.59094	1.58791E-09
1291.71545	1.58812E-09
1291.83984	1.58832E-09
1291.96436	1.58852E-09
1292.08875	1.58872E-09
1292.21326	1.58891E-09
1292.33765	1.58911E-09
1292.46216	1.58929E-09
1292.58655	1.58948E-09
1292.71106	1.58966E-09
1292.83545	1.58984E-09
1292.95996	1.59002E-09
1293.08435	1.59019E-09
1293.20886	1.59036E-09
1293.33337	1.59052E-09
1293.45776	1.59069E-09
1293.58228	1.59085E-09
1293.70667	1.59101E-09
1293.83118	1.59116E-09
1293.95557	1.59131E-09
1294.08008	1.59146E-09
1294.20447	1.59161E-09
1294.32898	1.59175E-09
1294.45337	1.59189E-09
1294.57788	1.59203E-09
1294.70227	1.59217E-09
1294.82678	1.59230E-09
1294.95117	1.59243E-09
1295.07568	1.59256E-09
1295.20020	1.59269E-09
1295.32459	1.59282E-09
1295.44910	1.59294E-09
1295.57349	1.59306E-09
1295.69800	1.59318E-09
1295.82239	1.59330E-09
1295.94690	1.59342E-09
1296.07129	1.59354E-09
1296.19580	1.59366E-09
1296.32019	1.59377E-09
1296.44470	1.59389E-09
1296.56909	1.59400E-09
1296.69360	1.59412E-09
1296.81799	1.59423E-09
1296.94251	1.59435E-09
1297.06690	1.59446E-09
1297.19141	1.59458E-09
1297.31592	1.59470E-09
1297.44031	1.59481E-09
1297.56482	1.59493E-09
1297.68921	1.59505E-09
1297.81372	1.59517E-09
1297.93811	1.59529E-09
1298.06262	1.59541E-09
1298.18701	1.59553E-09
1298.31152	1.59566E-09
1298.43591	1.59579E-09
1298.56043	1.59592E-09
1298.68481	1.59605E-09
1298.80933	1.59618E-09
1298.93372	1.59632E-09
1299.05823	1.59646E-09
1299.18274	1.59660E-09
1299.30713	1.59674E-09
1299.43164	1.59689E-09
1299.55603	1.59704E-09
1299.68054	1.59719E-09
1299.80493	1.59735E-09
1299.92944	1.59751E-09
1300.05383	1.59767E-09
1300.17835	1.59784E-09
1300.30273	1.59801E-09
1300.42725	1.59818E-09
1300.55164	1.59836E-09
1300.67615	1.59854E-09
1300.80054	1.59873E-09
1300.92505	1.59891E-09
1301.04956	1.59910E-09
1301.17395	1.59930E-09
1301.29846	1.59950E-09
1301.42285	1.59970E-09
1301.54736	1.59991E-09
1301.67175	1.60011E-09
1301.79627	1.60033E-09
1301.92065	1.60054E-09
1302.04517	1.60077E-09
1302.16956	1.60099E-09
1302.29407	1.60122E-09
1302.41846	1.60145E-09
1302.54297	1.60168E-09
1302.66736	1.60192E-09
1302.79187	1.60216E-09
1302.91638	1.60240E-09
1303.04077	1.60265E-09
1303.16528	1.60290E-09
1303.28967	1.60315E-09
1303.41419	1.60340E-09
1303.53857	1.60366E-09
1303.66309	1.60392E-09
1303.78748	1.60418E-09
1303.91199	1.60445E-09
1304.03638	1.60472E-09
1304.16089	1.60498E-09
1304.28528	1.60525E-09
1304.40979	1.60553E-09
1304.53418	1.60580E-09
1304.65869	1.60608E-09
1304.78320	1.60635E-09
1304.90759	1.60663E-09
1305.03210	1.60691E-09
1305.15649	1.60719E-09
1305.28101	1.60747E-09
1305.40540	1.60775E-09
1305.52991	1.60803E-09
1305.65430	1.60831E-09
1305.77881	1.60859E-09
1305.90320	1.60887E-09
1306.02771	1.60915E-09
1306.15210	1.60943E-09
1306.27661	1.60971E-09
1306.40100	1.60999E-09
1306.52551	1.61027E-09
1306.65002	1.61055E-09
1306.77441	1.61082E-09
1306.89893	1.61110E-09
1307.02332	1.61137E-09
1307.14783	1.61165E-09
1307.27222	1.61192E-09
1307.39673	1.61218E-09
1307.52112	1.61245E-09
1307.64563	1.61272E-09
1307.77002	1.61298E-09
1307.89453	1.61324E-09
1308.01892	1.61350E-09
1308.14343	1.61375E-09
1308.26782	1.61400E-09
1308.39233	1.61425E-09
1308.51685	1.61450E-09
1308.64124	1.61475E-09
1308.76575	1.61499E-09
1308.89014	1.61523E-09
1309.01465	1.61546E-09
1309.13904	1.61570E-09
1309.26355	1.61593E-09
1309.38794	1.61615E-09
1309.51245	1.61638E-09
1309.63684	1.61660E-09
1309.76135	1.61682E-09
1309.88574	1.61703E-09
1310.01025	1.61724E-09
1310.13464	1.61745E-09
1310.25916	1.61765E-09
1310.38367	1.61785E-09
1310.50806	1.61805E-09
1310.63257	1.61824E-09
1310.75696	1.61843E-09
1310.88147	1.61862E-09
1311.00586	1.61880E-09
1311.13037	1.61899E-09
1311.25476	1.61916E-09
1311.37927	1.61934E-09
1311.50366	1.61951E-09
1311.62817	1.61968E-09
1311.75256	1.61984E-09
1311.87708	1.62001E-09
1312.00147	1.62017E-09
1312.12598	1.62032E-09
1312.25049	1.62048E-09
1312.37488	1.62063E-09
1312.49939	1.62078E-09
1312.62378	1.62092E-09
1312.74829	1.62107E-09
1312.87268	1.62121E-09
1312.99719	1.62135E-09
1313.12158	1.62148E-09
1313.24609	1.62162E-09
1313.37048	1.62175E-09
1313.49500	1.62188E-09
1313.61939	1.62201E-09
1313.74390	1.62214E-09
1313.86829	1.62226E-09
1313.99280	1.62239E-09
1314.11731	1.62251E-09
1314.24170	1.62263E-09
1314.36621	1.62275E-09
1314.49060	1.62287E-09
1314.61511	1.62299E-09
1314.73950	1.62311E-09
1314.86401	1.62322E-09
1314.98840	1.62334E-09
1315.11292	1.62345E-09
1315.23731	1.62356E-09
1315.36182	1.62368E-09
1315.48621	1.62379E-09
1315.61072	1.62390E-09
1315.73511	1.62401E-09
1315.85962	1.62412E-09
1315.98413	1.62423E-09
1316.10852	1.62434E-09
1316.23303	1.62446E-09
1316.35742	1.62457E-09
1316.48193	1.62467E-09
1316.60632	1.62479E-09
1316.73084	1.62490E-09
1316.85523	1.62501E-09
1316.97974	1.62511E-09
1317.10413	1.62523E-09
1317.22864	1.62534E-09
1317.35303	1.62545E-09
1317.47754	1.62556E-09
1317.60193	1.62567E-09
1317.72644	1.62578E-09
1317.85095	1.62589E-09
1317.97534	1.62601E-09
1318.09985	1.62612E-09
1318.22424	1.62623E-09
1318.34876	1.62634E-09
1318.47315	1.62646E-09
1318.59766	1.62657E-09
1318.72205	1.62669E-09
1318.84656	1.62680E-09
1318.97095	1.62691E-09
1319.09546	1.62703E-09
1319.21985	1.62714E-09
1319.34436	1.62726E-09
1319.46875	1.62738E-09
1319.59326	1.62749E-09
1319.71765	1.62761E-09
1319.84216	1.62772E-09
1319.96668	1.62784E-09
1320.09106	1.62796E-09
1320.21558	1.62808E-09
1320.33997	1.62819E-09
1320.46448	1.62831E-09
1320.58887	1.62843E-09
1320.71338	1.62855E-09
1320.83777	1.62866E-09
1320.96228	1.62878E-09
1321.08667	1.62890E-09
1321.21118	1.62902E-09
1321.33557	1.62914E-09
1321.46008	1.62925E-09
1321.58447	1.62937E-09
1321.70898	1.62949E-09
1321.83350	1.62961E-09
1321.95789	1.62972E-09
1322.08240	1.62984E-09
1322.20679	1.62996E-09
1322.33130	1.63007E-09
1322.45569	1.63019E-09
1322.58020	1.63031E-09
1322.70459	1.63042E-09
1322.82910	1.63054E-09
1322.95349	1.63066E-09
1323.07800	1.63077E-09
1323.20239	1.63089E-09
1323.32690	1.63100E-09
1323.45129	1.63112E-09
1323.57581	1.63123E-09
1323.70032	1.63135E-09
1323.82471	1.63146E-09
1323.94922	1.63158E-09
1324.07361	1.63169E-09
1324.19812	1.63180E-09
1324.32251	1.63192E-09
1324.44702	1.63203E-09
1324.57141	1.63215E-09
1324.69592	1.63226E-09
1324.82031	1.63237E-09
1324.94482	1.63249E-09
1325.06921	1.63260E-09
1325.19373	1.63272E-09
1325.31812	1.63283E-09
1325.44263	1.63295E-09
1325.56714	1.63306E-09
1325.69153	1.63318E-09
1325.81604	1.63330E-09
1325.94043	1.63341E-09
1326.06494	1.63353E-09
1326.18933	1.63365E-09
1326.31384	1.63377E-09
1326.43823	1.63389E-09
1326.56274	1.63401E-09
1326.68713	1.63412E-09
1326.81165	1.63425E-09
1326.93604	1.63437E-09
1327.06055	1.63449E-09
1327.18494	1.63461E-09
1327.30945	1.63474E-09
1327.43396	1.63486E-09
1327.55835	1.63499E-09
1327.68286	1.63512E-09
1327.80725	1.63525E-09
1327.93176	1.63538E-09
1328.05615	1.63551E-09
1328.18066	1.63565E-09
1328.30505	1.63578E-09
1328.42957	1.63592E-09
1328.55396	1.63606E-09
1328.67847	1.63620E-09
1328.80286	1.63634E-09
1328.92737	1.63649E-09
1329.05176	1.63663E-09
1329.17627	1.63678E-09
1329.30078	1.63693E-09
1329.42517	1.63708E-09
1329.54968	1.63724E-09
1329.67407	1.63740E-09
1329.79858	1.63756E-09
1329.92297	1.63772E-09
1330.04749	1.63788E-09
1330.17188	1.63805E-09
1330.29639	1.63822E-09
1330.42078	1.63839E-09
1330.54529	1.63857E-09
1330.66968	1.63874E-09
1330.79419	1.63892E-09
1330.91858	1.63911E-09
1331.04309	1.63929E-09
1331.16760	1.63948E-09
1331.29199	1.63967E-09
1331.41650	1.63986E-09
1331.54089	1.64006E-09
1331.66541	1.64025E-09
1331.78980	1.64045E-09
1331.91431	1.64066E-09
1332.03870	1.64086E-09
1332.16321	1.64107E-09
1332.28760	1.64128E-09
1332.41211	1.64149E-09
1332.53650	1.64171E-09
1332.66101	1.64193E-09
1332.78540	1.64215E-09
1332.90991	1.64237E-09
1333.03442	1.64260E-09
1333.15881	1.64283E-09
1333.28333	1.64306E-09
1333.40772	1.64329E-09
1333.53223	1.64352E-09
1333.65662	1.64376E-09
1333.78113	1.64400E-09
1333.90552	1.64424E-09
1334.03003	1.64449E-09
1334.15442	1.64474E-09
1334.27893	1.64498E-09
1334.40332	1.64523E-09
1334.52783	1.64549E-09
1334.65222	1.64574E-09
1334.77673	1.64600E-09
1334.90125	1.64625E-09
1335.02564	1.64651E-09
1335.15015	1.64677E-09
1335.27454	1.64704E-09
1335.39905	1.64730E-09
1335.52344	1.64757E-09
1335.64795	1.64784E-09
1335.77234	1.64811E-09
1335.89685	1.64838E-09
1336.02124	1.64865E-09
1336.14575	1.64892E-09
1336.27014	1.64919E-09
1336.39465	1.64947E-09
1336.51904	1.64974E-09
1336.64356	1.65002E-09
1336.76807	1.65030E-09
1336.89246	1.65058E-09
1337.01697	1.65086E-09
1337.14136	1.65114E-09
1337.26587	1.65142E-09
1337.39026	1.65170E-09
1337.51477	1.65198E-09
1337.63916	1.65226E-09
1337.76367	1.65255E-09
1337.88806	1.65283E-09
1338.01257	1.65311E-09
1338.13696	1.65340E-09
1338.26148	1.65368E-09
1338.38586	1.65396E-09
1338.51038	1.65425E-09
1338.63489	1.65453E-09
1338.75928	1.65482E-09
1338.88379	1.65510E-09
1339.00818	1.65538E-09
1339.13269	1.65567E-09
1339.25708	1.65595E-09
1339.38159	1.65624E-09
1339.50598	1.65652E-09
1339.63049	1.65680E-09
1339.75488	1.65709E-09
1339.87940	1.65737E-09
1340.00378	1.65765E-09
1340.12830	1.65793E-09
1340.25269	1.65822E-09
1340.37720	1.65850E-09
1340.50171	1.65878E-09
1340.62610	1.65906E-09
1340.75061	1.65934E-09
1340.87500	1.65962E-09
1340.99951	1.65990E-09
1341.12390	1.66018E-09
1341.24841	1.66046E-09
1341.37280	1.66074E-09
1341.49731	1.66101E-09
1341.62170	1.66129E-09
1341.74622	1.66157E-09
1341.87061	1.66184E-09
1341.99512	1.66212E-09
1342.11951	1.66239E-09
1342.24402	1.66266E-09
1342.36841	1.66294E-09
1342.49292	1.66321E-09
1342.61743	1.66348E-09
1342.74182	1.66375E-09
1342.86633	1.66402E-09
1342.99072	1.66429E-09
1343.11523	1.66456E-09
1343.23962	1.66483E-09
1343.36414	1.66509E-09
1343.48853	1.66536E-09
1343.61304	1.66562E-09
1343.73743	1.66588E-09
1343.86194	1.66615E-09
1343.98633	1.66641E-09
1344.11084	1.66667E-09
1344.23523	1.66693E-09
1344.35974	1.66718E-09
1344.48425	1.66744E-09
1344.60864	1.66770E-09
1344.73315	1.66795E-09
1344.85754	1.66820E-09
1344.98206	1.66845E-09
1345.10645	1.66870E-09
1345.23096	1.66895E-09
1345.35535	1.66920E-09
1345.47986	1.66944E-09
1345.60425	1.66968E-09
1345.72876	1.66993E-09
1345.85315	1.67017E-09
1345.97766	1.67041E-09
1346.10205	1.67064E-09
1346.22656	1.67088E-09
1346.35107	1.67111E-09
1346.47546	1.67134E-09
1346.59998	1.67157E-09
1346.72437	1.67179E-09
1346.84888	1.67202E-09
1346.97327	1.67224E-09
1347.09778	1.67246E-09
1347.22217	1.67268E-09
1347.34668	1.67290E-09
1347.47107	1.67311E-09
1347.59558	1.67332E-09
1347.71997	1.67353E-09
1347.84448	1.67374E-09
1347.96887	1.67394E-09
1348.09338	1.67415E-09
1348.21790	1.67435E-09
1348.34229	1.67454E-09
1348.46680	1.67474E-09
1348.59119	1.67493E-09
1348.71570	1.67512E-09
1348.84009	1.67531E-09
1348.96460	1.67550E-09
1349.08899	1.67568E-09
1349.21350	1.67586E-09
1349.33789	1.67604E-09
1349.46240	1.67622E-09
1349.58679	1.67639E-09
1349.71130	1.67656E-09
1349.83569	1.67673E-09
1349.96021	1.67690E-09
1350.08472	1.67706E-09
1350.20911	1.67722E-09
1350.33362	1.67738E-09
1350.45801	1.67754E-09
1350.58252	1.67769E-09
1350.70691	1.67785E-09
1350.83142	1.67800E-09
1350.95581	1.67814E-09
1351.08032	1.67829E-09
1351.20471	1.67844E-09
1351.32922	1.67858E-09
1351.45361	1.67872E-09
1351.57813	1.67886E-09
1351.70252	1.67899E-09
1351.82703	1.67913E-09
1351.95154	1.67926E-09
1352.07593	1.67939E-09
1352.20044	1.67953E-09
1352.32483	1.67966E-09
1352.44934	1.67978E-09
1352.57373	1.67991E-09
1352.69824	1.68004E-09
1352.82263	1.68016E-09
1352.94714	1.68029E-09
1353.07153	1.68041E-09
1353.19605	1.68054E-09
1353.32044	1.68066E-09
1353.44495	1.68079E-09
1353.56934	1.68091E-09
1353.69385	1.68103E-09
1353.81836	1.68116E-09
1353.94275	1.68128E-09
1354.06726	1.68140E-09
1354.19165	1.68153E-09
1354.31616	1.68165E-09
1354.44055	1.68178E-09
1354.56506	1.68191E-09
1354.68945	1.68204E-09
1354.81397	1.68217E-09
1354.93835	1.68230E-09
1355.06287	1.68243E-09
1355.18726	1.68256E-09
1355.31177	1.68269E-09
1355.43616	1.68283E-09
1355.56067	1.68297E-09
1355.68518	1.68311E-09
1355.80957	1.68325E-09
1355.93408	1.68340E-09
1356.05847	1.68354E-09
1356.18298	1.68369E-09
1356.30737	1.68384E-09
1356.43189	1.68400E-09
1356.55627	1.68415E-09
1356.68079	1.68431E-09
1356.80518	1.68447E-09
1356.92969	1.68464E-09
1357.05408	1.68480E-09
1357.17859	1.68497E-09
1357.30298	1.68515E-09
1357.42749	1.68532E-09
1357.55200	1.68550E-09
1357.67639	1.68568E-09
1357.80090	1.68586E-09
1357.92529	1.68605E-09
1358.04981	1.68624E-09
1358.17419	1.68643E-09
1358.29871	1.68662E-09
1358.42310	1.68682E-09
1358.54761	1.68702E-09
1358.67200	1.68722E-09
1358.79651	1.68743E-09
1358.92090	1.68763E-09
1359.04541	1.68784E-09
1359.16980	1.68805E-09
1359.29431	1.68827E-09
1359.41882	1.68848E-09
1359.54321	1.68870E-09
1359.66773	1.68892E-09
1359.79211	1.68914E-09
1359.91663	1.68936E-09
1360.04102	1.68959E-09
1360.16553	1.68981E-09
1360.28992	1.69004E-09
1360.41443	1.69026E-09
1360.53882	1.69049E-09
1360.66333	1.69071E-09
1360.78772	1.69094E-09
1360.91223	1.69117E-09
1361.03662	1.69139E-09
1361.16113	1.69162E-09
1361.28565	1.69184E-09
1361.41003	1.69207E-09
1361.53455	1.69229E-09
1361.65894	1.69251E-09
1361.78345	1.69273E-09
1361.90784	1.69294E-09
1362.03235	1.69316E-09
1362.15674	1.69337E-09
1362.28125	1.69358E-09
1362.40564	1.69379E-09
1362.53015	1.69399E-09
1362.65454	1.69419E-09
1362.77905	1.69439E-09
1362.90344	1.69458E-09
1363.02795	1.69477E-09
1363.15234	1.69495E-09
1363.27686	1.69513E-09
1363.40137	1.69530E-09
1363.52576	1.69547E-09
1363.65027	1.69563E-09
1363.77466	1.69579E-09
1363.89917	1.69594E-09
1364.02356	1.69609E-09
1364.14807	1.69623E-09
1364.27246	1.69636E-09
1364.39697	1.69648E-09
1364.52136	1.69660E-09
1364.64587	1.69672E-09
1364.77026	1.69682E-09
1364.89478	1.69692E-09
1365.01917	1.69701E-09
1365.14368	1.69710E-09
1365.26819	1.69717E-09
1365.39258	1.69724E-09
1365.51709	1.69730E-09
1365.64148	1.69735E-09
1365.76599	1.69740E-09
1365.89038	1.69744E-09
1366.01489	1.69747E-09
1366.13928	1.69749E-09
1366.26379	1.69750E-09
1366.38818	1.69751E-09
1366.51270	1.69751E-09
1366.63709	1.69750E-09
1366.76160	1.69749E-09
1366.88599	1.69746E-09
1367.01050	1.69743E-09
1367.13501	1.69739E-09
1367.25940	1.69735E-09
1367.38391	1.69730E-09
1367.50830	1.69724E-09
1367.63281	1.69717E-09
1367.75720	1.69710E-09
1367.88171	1.69703E-09
1368.00610	1.69695E-09
1368.13062	1.69686E-09
1368.25501	1.69676E-09
1368.37952	1.69667E-09
1368.50391	1.69657E-09
1368.62842	1.69646E-09
1368.75281	1.69635E-09
1368.87732	1.69623E-09
1369.00183	1.69612E-09
1369.12622	1.69600E-09
1369.25073	1.69587E-09
1369.37512	1.69575E-09
1369.49963	1.69562E-09
1369.62402	1.69550E-09
1369.74854	1.69537E-09
1369.87293	1.69524E-09
1369.99744	1.69511E-09
1370.12183	1.69498E-09
1370.24634	1.69486E-09
1370.37073	1.69473E-09
1370.49524	1.69461E-09
1370.61963	1.69449E-09
1370.74414	1.69437E-09
1370.86865	1.69425E-09
1370.99304	1.69414E-09
1371.11755	1.69403E-09
1371.24194	1.69393E-09
1371.36646	1.69384E-09
1371.49085	1.69374E-09
1371.61536	1.69366E-09
1371.73975	1.69358E-09
1371.86426	1.69351E-09
1371.98865	1.69344E-09
1372.11316	1.69339E-09
1372.23755	1.69334E-09
1372.36206	1.69330E-09
1372.48645	1.69327E-09
1372.61096	1.69325E-09
1372.73547	1.69324E-09
1372.85986	1.69324E-09
1372.98438	1.69325E-09
1373.10877	1.69327E-09
1373.23328	1.69331E-09
1373.35767	1.69335E-09
1373.48218	1.69341E-09
1373.60657	1.69348E-09
1373.73108	1.69356E-09
1373.85547	1.69365E-09
1373.97998	1.69376E-09
1374.10437	1.69389E-09
1374.22888	1.69402E-09
1374.35327	1.69417E-09
1374.47778	1.69433E-09
1374.60230	1.69451E-09
1374.72669	1.69470E-09
1374.85120	1.69491E-09
1374.97559	1.69513E-09
1375.10010	1.69536E-09
1375.22449	1.69561E-09
1375.34900	1.69587E-09
1375.47339	1.69614E-09
1375.59790	1.69643E-09
1375.72229	1.69674E-09
1375.84680	1.69706E-09
1375.97119	1.69739E-09
1376.09570	1.69774E-09
1376.22009	1.69810E-09
1376.34460	1.69847E-09
1376.46912	1.69885E-09
1376.59351	1.69925E-09
1376.71802	1.69967E-09
1376.84241	1.70009E-09
1376.96692	1.70053E-09
1377.09131	1.70097E-09
1377.21582	1.70143E-09
1377.34021	1.70190E-09
1377.46472	1.70238E-09
1377.58911	1.70287E-09
1377.71362	1.70337E-09
1377.83801	1.70388E-09
1377.96252	1.70440E-09
1378.08691	1.70493E-09
1378.21143	1.70546E-09
1378.33594	1.70600E-09
1378.46033	1.70654E-09
1378.58484	1.70710E-09
1378.70923	1.70765E-09
1378.83374	1.70822E-09
1378.95813	1.70878E-09
1379.08264	1.70935E-09
1379.20703	1.70992E-09
1379.33154	1.71049E-09
1379.45593	1.71107E-09
1379.58044	1.71164E-09
1379.70483	1.71222E-09
1379.82935	1.71279E-09
1379.95374	1.71337E-09
1380.07825	1.71393E-09
1380.20276	1.71450E-09
1380.32715	1.71507E-09
1380.45166	1.71562E-09
1380.57605	1.71618E-09
1380.70056	1.71673E-09
1380.82495	1.71727E-09
1380.94946	1.71780E-09
1381.07385	1.71833E-09
1381.19836	1.71885E-09
1381.32275	1.71936E-09
1381.44727	1.71986E-09
1381.57166	1.72034E-09
1381.69617	1.72082E-09
1381.82056	1.72129E-09
1381.94507	1.72174E-09
1382.06958	1.72218E-09
1382.19397	1.72260E-09
1382.31848	1.72301E-09
1382.44287	1.72341E-09
1382.56738	1.72379E-09
1382.69177	1.72416E-09
1382.81628	1.72450E-09
1382.94067	1.72483E-09
1383.06519	1.72515E-09
1383.18958	1.72545E-09
1383.31409	1.72573E-09
1383.43848	1.72599E-09
1383.56299	1.72623E-09
1383.68738	1.72646E-09
1383.81189	1.72666E-09
1383.93640	1.72685E-09
1384.06079	1.72702E-09
1384.18530	1.72717E-09
1384.30969	1.72729E-09
1384.43420	1.72740E-09
1384.55859	1.72749E-09
1384.68311	1.72756E-09
1384.80750	1.72761E-09
1384.93201	1.72764E-09
1385.05640	1.72765E-09
1385.18091	1.72764E-09
1385.30530	1.72761E-09
1385.42981	1.72757E-09
1385.55420	1.72750E-09
1385.67871	1.72741E-09
1385.80310	1.72731E-09
1385.92761	1.72719E-09
1386.05212	1.72705E-09
1386.17651	1.72689E-09
1386.30103	1.72672E-09
1386.42542	1.72653E-09
1386.54993	1.72633E-09
1386.67432	1.72610E-09
1386.79883	1.72587E-09
1386.92322	1.72562E-09
1387.04773	1.72535E-09
1387.17212	1.72507E-09
1387.29663	1.72478E-09
1387.42102	1.72448E-09
1387.54553	1.72417E-09
1387.66992	1.72384E-09
1387.79443	1.72351E-09
1387.91895	1.72316E-09
1388.04334	1.72281E-09
1388.16785	1.72245E-09
1388.29224	1.72208E-09
1388.41675	1.72170E-09
1388.54114	1.72132E-09
1388.66565	1.72094E-09
1388.79004	1.72055E-09
1388.91455	1.72016E-09
1389.03894	1.71976E-09
1389.16345	1.71936E-09
1389.28784	1.71896E-09
1389.41235	1.71856E-09
1389.53674	1.71816E-09
1389.66126	1.71776E-09
1389.78577	1.71737E-09
1389.91016	1.71697E-09
1390.03467	1.71658E-09
1390.15906	1.71619E-09
1390.28357	1.71581E-09
1390.40796	1.71543E-09
1390.53247	1.71506E-09
1390.65686	1.71469E-09
1390.78137	1.71434E-09
1390.90576	1.71399E-09
1391.03027	1.71365E-09
1391.15466	1.71331E-09
1391.27918	1.71299E-09
1391.40356	1.71268E-09
1391.52808	1.71238E-09
1391.65259	1.71209E-09
1391.77698	1.71181E-09
1391.90149	1.71154E-09
1392.02588	1.71129E-09
1392.15039	1.71105E-09
1392.27478	1.71082E-09
1392.39929	1.71061E-09
1392.52368	1.71041E-09
1392.64819	1.71023E-09
1392.77258	1.71006E-09
1392.89710	1.70990E-09
1393.02148	1.70976E-09
1393.14600	1.70964E-09
1393.27039	1.70953E-09
1393.39490	1.70943E-09
1393.51941	1.70936E-09
1393.64380	1.70930E-09
1393.76831	1.70925E-09
1393.89270	1.70922E-09
1394.01721	1.70920E-09
1394.14160	1.70921E-09
1394.26611	1.70922E-09
1394.39050	1.70926E-09
1394.51502	1.70930E-09
1394.63940	1.70937E-09
1394.76392	1.70945E-09
1394.88831	1.70954E-09
1395.01282	1.70965E-09
1395.13721	1.70977E-09
1395.26172	1.70991E-09
1395.38623	1.71006E-09
1395.51062	1.71022E-09
1395.63513	1.71040E-09
1395.75952	1.71058E-09
1395.88403	1.71079E-09
1396.00842	1.71100E-09
1396.13294	1.71122E-09
1396.25732	1.71146E-09
1396.38184	1.71170E-09
1396.50623	1.71196E-09
1396.63074	1.71222E-09
1396.75513	1.71250E-09
1396.87964	1.71278E-09
1397.00403	1.71306E-09
1397.12854	1.71336E-09
1397.25305	1.71366E-09
1397.37744	1.71397E-09
1397.50195	1.71429E-09
1397.62634	1.71460E-09
1397.75085	1.71493E-09
1397.87524	1.71525E-09
1397.99976	1.71558E-09
1398.12415	1.71591E-09
1398.24866	1.71624E-09
1398.37305	1.71657E-09
1398.49756	1.71690E-09
1398.62195	1.71724E-09
1398.74646	1.71757E-09
1398.87085	1.71790E-09
1398.99536	1.71823E-09
1399.11987	1.71855E-09
1399.24426	1.71887E-09
1399.36877	1.71919E-09
1399.49316	1.71951E-09
1399.61768	1.71981E-09
1399.74207	1.72012E-09
1399.86658	1.72041E-09
1399.99097	1.72070E-09
1400.11548	1.72099E-09
1400.23987	1.72126E-09
1400.36438	1.72153E-09
1400.48877	1.72179E-09
1400.61328	1.72204E-09
1400.73767	1.72228E-09
1400.86218	1.72251E-09
1400.98669	1.72273E-09
1401.11108	1.72294E-09
1401.23560	1.72314E-09
1401.35999	1.72333E-09
1401.48450	1.72351E-09
1401.60889	1.72368E-09
1401.73340	1.72383E-09
1401.85779	1.72397E-09
1401.98230	1.72411E-09
1402.10669	1.72423E-09
1402.23120	1.72433E-09
1402.35559	1.72443E-09
1402.48010	1.72452E-09
1402.60449	1.72459E-09
1402.72900	1.72465E-09
1402.85352	1.72470E-09
1402.97791	1.72474E-09
1403.10242	1.72476E-09
1403.22681	1.72477E-09
1403.35132	1.72478E-09
1403.47571	1.72477E-09
1403.60022	1.72475E-09
1403.72461	1.72472E-09
1403.84912	1.72468E-09
1403.97351	1.72462E-09
1404.09802	1.72456E-09
1404.22241	1.72449E-09
1404.34692	1.72441E-09
1404.47131	1.72432E-09
1404.59583	1.72422E-09
1404.72034	1.72412E-09
1404.84473	1.72401E-09
1404.96924	1.72389E-09
1405.09363	1.72376E-09
1405.21814	1.72363E-09
1405.34253	1.72349E-09
1405.46704	1.72334E-09
1405.59143	1.72320E-09
1405.71594	1.72304E-09
1405.84033	1.72289E-09
1405.96484	1.72273E-09
1406.08923	1.72256E-09
1406.21375	1.72240E-09
1406.33814	1.72223E-09
1406.46265	1.72206E-09
1406.58716	1.72190E-09
1406.71155	1.72173E-09
1406.83606	1.72156E-09
1406.96045	1.72139E-09
1407.08496	1.72123E-09
1407.20935	1.72106E-09
1407.33386	1.72090E-09
1407.45825	1.72074E-09
1407.58276	1.72059E-09
1407.70715	1.72044E-09
1407.83167	1.72029E-09
1407.95606	1.72015E-09
1408.08057	1.72002E-09
1408.20496	1.71989E-09
1408.32947	1.71976E-09
1408.45386	1.71965E-09
1408.57837	1.71954E-09
1408.70288	1.71944E-09
1408.82727	1.71934E-09
1408.95178	1.71926E-09
1409.07617	1.71918E-09
1409.20068	1.71911E-09
1409.32507	1.71905E-09
1409.44959	1.71900E-09
1409.57398	1.71896E-09
1409.69849	1.71893E-09
1409.82288	1.71891E-09
1409.94739	1.71890E-09
1410.07178	1.71890E-09
1410.19629	1.71891E-09
1410.32068	1.71893E-09
1410.44519	1.71896E-09
1410.56970	1.71900E-09
1410.69409	1.71905E-09
1410.81860	1.71911E-09
1410.94299	1.71919E-09
1411.06751	1.71927E-09
1411.19190	1.71937E-09
1411.31641	1.71948E-09
1411.44080	1.71959E-09
1411.56531	1.71972E-09
1411.68970	1.71986E-09
1411.81421	1.72001E-09
1411.93860	1.72017E-09
1412.06311	1.72033E-09
1412.18750	1.72051E-09
1412.31201	1.72070E-09
1412.43652	1.72090E-09
1412.56091	1.72110E-09
1412.68543	1.72132E-09
1412.80981	1.72154E-09
1412.93433	1.72177E-09
1413.05872	1.72201E-09
1413.18323	1.72225E-09
1413.30762	1.72250E-09
1413.43213	1.72276E-09
1413.55652	1.72303E-09
1413.68103	1.72330E-09
1413.80542	1.72357E-09
1413.92993	1.72386E-09
1414.05432	1.72414E-09
1414.17883	1.72443E-09
1414.30335	1.72472E-09
1414.42773	1.72502E-09
1414.55225	1.72532E-09
1414.67664	1.72562E-09
1414.80115	1.72593E-09
1414.92554	1.72623E-09
1415.05005	1.72654E-09
1415.17444	1.72685E-09
1415.29895	1.72715E-09
1415.42334	1.72746E-09
1415.54785	1.72777E-09
1415.67224	1.72807E-09
1415.79675	1.72838E-09
1415.92114	1.72868E-09
1416.04565	1.72898E-09
1416.17017	1.72927E-09
1416.29456	1.72957E-09
1416.41907	1.72986E-09
1416.54346	1.73014E-09
1416.66797	1.73043E-09
1416.79236	1.73070E-09
1416.91687	1.73098E-09
1417.04126	1.73124E-09
1417.16577	1.73150E-09
1417.29016	1.73176E-09
1417.41467	1.73201E-09
1417.53906	1.73225E-09
1417.66357	1.73248E-09
1417.78796	1.73271E-09
1417.91248	1.73294E-09
1418.03699	1.73315E-09
1418.16138	1.73336E-09
1418.28589	1.73356E-09
1418.41028	1.73375E-09
1418.53479	1.73393E-09
1418.65918	1.73411E-09
1418.78369	1.73428E-09
1418.90808	1.73444E-09
1419.03259	1.73459E-09
1419.15698	1.73473E-09
1419.28149	1.73487E-09
1419.40588	1.73499E-09
1419.53040	1.73511E-09
1419.65479	1.73523E-09
1419.77930	1.73533E-09
1419.90381	1.73543E-09
1420.02820	1.73552E-09
1420.15271	1.73560E-09
1420.27710	1.73568E-09
1420.40161	1.73575E-09
1420.52600	1.73581E-09
1420.65051	1.73587E-09
1420.77490	1.73592E-09
1420.89941	1.73596E-09
1421.02380	1.73600E-09
1421.14832	1.73603E-09
1421.27271	1.73605E-09
1421.39722	1.73608E-09
1421.52161	1.73610E-09
1421.64612	1.73611E-09
1421.77063	1.73612E-09
1421.89502	1.73613E-09
1422.01953	1.73613E-09
1422.14392	1.73613E-09
1422.26843	1.73613E-09
1422.39282	1.73613E-09
1422.51733	1.73612E-09
1422.64172	1.73611E-09
1422.76624	1.73611E-09
1422.89063	1.73610E-09
1423.01514	1.73609E-09
1423.13953	1.73608E-09
1423.26404	1.73608E-09
1423.38843	1.73607E-09
1423.51294	1.73607E-09
1423.63745	1.73606E-09
1423.76184	1.73606E-09
1423.88635	1.73607E-09
1424.01074	1.73607E-09
1424.13525	1.73608E-09
1424.25964	1.73609E-09
1424.38416	1.73611E-09
1424.50855	1.73613E-09
1424.63306	1.73615E-09
1424.75745	1.73618E-09
1424.88196	1.73622E-09
1425.00635	1.73626E-09
1425.13086	1.73631E-09
1425.25525	1.73636E-09
1425.37976	1.73642E-09
1425.50427	1.73649E-09
1425.62866	1.73656E-09
1425.75317	1.73664E-09
1425.87756	1.73672E-09
1426.00208	1.73682E-09
1426.12647	1.73692E-09
1426.25098	1.73703E-09
1426.37537	1.73714E-09
1426.49988	1.73727E-09
1426.62427	1.73740E-09
1426.74878	1.73754E-09
1426.87317	1.73769E-09
1426.99768	1.73784E-09
1427.12207	1.73800E-09
1427.24658	1.73817E-09
1427.37109	1.73835E-09
1427.49548	1.73854E-09
1427.62000	1.73873E-09
1427.74439	1.73893E-09
1427.86890	1.73914E-09
1427.99329	1.73936E-09
1428.11780	1.73958E-09
1428.24219	1.73982E-09
1428.36670	1.74005E-09
1428.49109	1.74030E-09
1428.61560	1.74055E-09
1428.73999	1.74081E-09
1428.86450	1.74107E-09
1428.98889	1.74134E-09
1429.11340	1.74161E-09
1429.23792	1.74189E-09
1429.36231	1.74218E-09
1429.48682	1.74247E-09
1429.61121	1.74276E-09
1429.73572	1.74306E-09
1429.86011	1.74336E-09
1429.98462	1.74367E-09
1430.10901	1.74397E-09
1430.23352	1.74429E-09
1430.35791	1.74460E-09
1430.48242	1.74491E-09
1430.60681	1.74523E-09
1430.73132	1.74555E-09
1430.85571	1.74587E-09
1430.98023	1.74619E-09
1431.10461	1.74651E-09
1431.22913	1.74683E-09
1431.35364	1.74714E-09
1431.47803	1.74746E-09
1431.60254	1.74778E-09
1431.72693	1.74810E-09
1431.85144	1.74841E-09
1431.97583	1.74872E-09
1432.10034	1.74903E-09
1432.22473	1.74933E-09
1432.34924	1.74963E-09
1432.47363	1.74993E-09
1432.59815	1.75023E-09
1432.72253	1.75052E-09
1432.84705	1.75080E-09
1432.97144	1.75108E-09
1433.09595	1.75135E-09
1433.22046	1.75162E-09
1433.34485	1.75188E-09
1433.46936	1.75214E-09
1433.59375	1.75239E-09
1433.71826	1.75263E-09
1433.84265	1.75287E-09
1433.96716	1.75310E-09
1434.09155	1.75332E-09
1434.21606	1.75354E-09
1434.34045	1.75374E-09
1434.46497	1.75394E-09
1434.58936	1.75414E-09
1434.71387	1.75432E-09
1434.83826	1.75450E-09
1434.96277	1.75467E-09
1435.08728	1.75483E-09
1435.21167	1.75498E-09
1435.33618	1.75512E-09
1435.46057	1.75526E-09
1435.58508	1.75539E-09
1435.70947	1.75551E-09
1435.83398	1.75562E-09
1435.95837	1.75573E-09
1436.08289	1.75583E-09
1436.20728	1.75592E-09
1436.33179	1.75601E-09
1436.45618	1.75608E-09
1436.58069	1.75616E-09
1436.70508	1.75622E-09
1436.82959	1.75628E-09
1436.95410	1.75633E-09
1437.07849	1.75637E-09
1437.20300	1.75641E-09
1437.32739	1.75645E-09
1437.45190	1.75648E-09
1437.57629	1.75650E-09
1437.70081	1.75652E-09
1437.82520	1.75654E-09
1437.94971	1.75655E-09
1438.07410	1.75656E-09
1438.19861	1.75657E-09
1438.32300	1.75657E-09
1438.44751	1.75657E-09
1438.57190	1.75657E-09
1438.69641	1.75657E-09
1438.82092	1.75656E-09
1438.94531	1.75656E-09
1439.06982	1.75656E-09
1439.19421	1.75655E-09
1439.31873	1.75655E-09
1439.44312	1.75655E-09
1439.56763	1.75654E-09
1439.69202	1.75655E-09
1439.81653	1.75655E-09
1439.94092	1.75656E-09
1440.06543	1.75656E-09
1440.18982	1.75658E-09
1440.31433	1.75659E-09
1440.43872	1.75661E-09
1440.56323	1.75663E-09
1440.68774	1.75666E-09
1440.81213	1.75670E-09
1440.93665	1.75674E-09
1441.06104	1.75679E-09
1441.18555	1.75684E-09
1441.30994	1.75690E-09
1441.43445	1.75697E-09
1441.55884	1.75704E-09
1441.68335	1.75713E-09
1441.80774	1.75722E-09
1441.93225	1.75731E-09
1442.05664	1.75742E-09
1442.18115	1.75753E-09
1442.30554	1.75766E-09
1442.43005	1.75779E-09
1442.55457	1.75793E-09
1442.67896	1.75808E-09
1442.80347	1.75824E-09
1442.92786	1.75841E-09
1443.05237	1.75859E-09
1443.17676	1.75878E-09
1443.30127	1.75898E-09
1443.42566	1.75919E-09
1443.55017	1.75941E-09
1443.67456	1.75964E-09
1443.79907	1.75988E-09
1443.92346	1.76013E-09
1444.04797	1.76039E-09
1444.17236	1.76066E-09
1444.29688	1.76094E-09
1444.42139	1.76123E-09
1444.54578	1.76153E-09
1444.67029	1.76184E-09
1444.79468	1.76216E-09
1444.91919	1.76249E-09
1445.04358	1.76283E-09
1445.16809	1.76318E-09
1445.29248	1.76354E-09
1445.41699	1.76391E-09
1445.54138	1.76428E-09
1445.66589	1.76467E-09
1445.79028	1.76506E-09
1445.91480	1.76546E-09
1446.03919	1.76586E-09
1446.16370	1.76628E-09
1446.28821	1.76670E-09
1446.41260	1.76713E-09
1446.53711	1.76756E-09
1446.66150	1.76801E-09
1446.78601	1.76845E-09
1446.91040	1.76891E-09
1447.03491	1.76937E-09
1447.15930	1.76983E-09
1447.28381	1.77030E-09
1447.40820	1.77077E-09
1447.53272	1.77125E-09
1447.65710	1.77173E-09
1447.78162	1.77222E-09
1447.90601	1.77270E-09
1448.03052	1.77320E-09
1448.15503	1.77369E-09
1448.27942	1.77418E-09
1448.40393	1.77468E-09
1448.52832	1.77518E-09
1448.65283	1.77567E-09
1448.77722	1.77617E-09
1448.90173	1.77667E-09
1449.02612	1.77717E-09
1449.15064	1.77767E-09
1449.27502	1.77816E-09
1449.39954	1.77866E-09
1449.52393	1.77915E-09
1449.64844	1.77964E-09
1449.77283	1.78013E-09
1449.89734	1.78062E-09
1450.02185	1.78110E-09
1450.14624	1.78158E-09
1450.27075	1.78206E-09
1450.39514	1.78253E-09
1450.51965	1.78300E-09
1450.64404	1.78347E-09
1450.76856	1.78393E-09
1450.89294	1.78438E-09
1451.01746	1.78484E-09
1451.14185	1.78528E-09
1451.26636	1.78573E-09
1451.39075	1.78616E-09
1451.51526	1.78659E-09
1451.63965	1.78702E-09
1451.76416	1.78744E-09
1451.88855	1.78785E-09
1452.01306	1.78826E-09
1452.13757	1.78866E-09
1452.26196	1.78906E-09
1452.38648	1.78945E-09
1452.51086	1.78983E-09
1452.63538	1.79021E-09
1452.75977	1.79058E-09
1452.88428	1.79094E-09
1453.00867	1.79130E-09
1453.13318	1.79166E-09
1453.25757	1.79200E-09
1453.38208	1.79235E-09
1453.50647	1.79268E-09
1453.63098	1.79301E-09
1453.75537	1.79334E-09
1453.87988	1.79366E-09
1454.00440	1.79397E-09
1454.12878	1.79428E-09
1454.25330	1.79459E-09
1454.37769	1.79489E-09
1454.50220	1.79519E-09
1454.62659	1.79548E-09
1454.75110	1.79577E-09
1454.87549	1.79605E-09
1455.00000	1.79633E-09
1455.12439	1.79661E-09
1455.24890	1.79689E-09
1455.37329	1.79716E-09
1455.49780	1.79743E-09
1455.62219	1.79770E-09
1455.74670	1.79797E-09
1455.87122	1.79823E-09
1455.99561	1.79850E-09
1456.12012	1.79877E-09
1456.24451	1.79903E-09
1456.36902	1.79930E-09
1456.49341	1.79957E-09
1456.61792	1.79983E-09
1456.74231	1.80010E-09
1456.86682	1.80037E-09
1456.99121	1.80064E-09
1457.11572	1.80091E-09
1457.24011	1.80119E-09
1457.36462	1.80146E-09
1457.48901	1.80175E-09
1457.61353	1.80203E-09
1457.73804	1.80232E-09
1457.86243	1.80261E-09
1457.98694	1.80290E-09
1458.11133	1.80320E-09
1458.23584	1.80351E-09
1458.36023	1.80382E-09
1458.48474	1.80413E-09
1458.60913	1.80445E-09
1458.73364	1.80477E-09
1458.85803	1.80511E-09
1458.98254	1.80544E-09
1459.10693	1.80579E-09
1459.23145	1.80614E-09
1459.35584	1.80649E-09
1459.48035	1.80686E-09
1459.60486	1.80722E-09
1459.72925	1.80760E-09
1459.85376	1.80798E-09
1459.97815	1.80837E-09
1460.10266	1.80877E-09
1460.22705	1.80917E-09
1460.35156	1.80958E-09
1460.47595	1.81000E-09
1460.60046	1.81042E-09
1460.72485	1.81085E-09
1460.84937	1.81129E-09
1460.97376	1.81173E-09
1461.09827	1.81219E-09
1461.22266	1.81265E-09
1461.34717	1.81311E-09
1461.47168	1.81358E-09
1461.59607	1.81406E-09
1461.72058	1.81454E-09
1461.84497	1.81503E-09
1461.96948	1.81553E-09
1462.09387	1.81603E-09
1462.21838	1.81654E-09
1462.34277	1.81705E-09
1462.46729	1.81757E-09
1462.59168	1.81809E-09
1462.71619	1.81862E-09
1462.84058	1.81916E-09
1462.96509	1.81969E-09
1463.08948	1.82023E-09
1463.21399	1.82077E-09
1463.33850	1.82132E-09
1463.46289	1.82187E-09
1463.58740	1.82243E-09
1463.71179	1.82298E-09
1463.83630	1.82354E-09
1463.96069	1.82410E-09
1464.08521	1.82466E-09
1464.20960	1.82522E-09
1464.33411	1.82578E-09
1464.45850	1.82635E-09
1464.58301	1.82691E-09
1464.70740	1.82747E-09
1464.83191	1.82804E-09
1464.95630	1.82860E-09
1465.08081	1.82916E-09
1465.20532	1.82971E-09
1465.32971	1.83027E-09
1465.45422	1.83083E-09
1465.57861	1.83138E-09
1465.70313	1.83192E-09
1465.82752	1.83247E-09
1465.95203	1.83301E-09
1466.07642	1.83354E-09
1466.20093	1.83408E-09
1466.32532	1.83460E-09
1466.44983	1.83512E-09
1466.57422	1.83563E-09
1466.69873	1.83614E-09
1466.82312	1.83665E-09
1466.94763	1.83714E-09
1467.07214	1.83763E-09
1467.19653	1.83811E-09
1467.32105	1.83859E-09
1467.44544	1.83905E-09
1467.56995	1.83951E-09
1467.69434	1.83996E-09
1467.81885	1.84040E-09
1467.94324	1.84084E-09
1468.06775	1.84126E-09
1468.19214	1.84167E-09
1468.31665	1.84208E-09
1468.44104	1.84247E-09
1468.56555	1.84286E-09
1468.68994	1.84323E-09
1468.81445	1.84360E-09
1468.93897	1.84396E-09
1469.06335	1.84430E-09
1469.18787	1.84464E-09
1469.31226	1.84496E-09
1469.43677	1.84528E-09
1469.56116	1.84558E-09
1469.68567	1.84587E-09
1469.81006	1.84616E-09
1469.93457	1.84643E-09
1470.05896	1.84669E-09
1470.18347	1.84695E-09
1470.30786	1.84719E-09
1470.43237	1.84742E-09
1470.55676	1.84765E-09
1470.68127	1.84786E-09
1470.80579	1.84807E-09
1470.93018	1.84826E-09
1471.05469	1.84845E-09
1471.17908	1.84863E-09
1471.30359	1.84879E-09
1471.42798	1.84895E-09
1471.55249	1.84911E-09
1471.67688	1.84925E-09
1471.80139	1.84939E-09
1471.92578	1.84952E-09
1472.05029	1.84965E-09
1472.17468	1.84977E-09
1472.29919	1.84988E-09
1472.42358	1.84999E-09
1472.54810	1.85009E-09
1472.67261	1.85019E-09
1472.79700	1.85029E-09
1472.92151	1.85038E-09
1473.04590	1.85046E-09
1473.17041	1.85055E-09
1473.29480	1.85063E-09
1473.41931	1.85071E-09
1473.54370	1.85079E-09
1473.66821	1.85087E-09
1473.79260	1.85094E-09
1473.91711	1.85102E-09
1474.04150	1.85110E-09
1474.16602	1.85118E-09
1474.29041	1.85126E-09
1474.41492	1.85134E-09
1474.53931	1.85143E-09
1474.66382	1.85152E-09
1474.78833	1.85161E-09
1474.91272	1.85171E-09
1475.03723	1.85181E-09
1475.16162	1.85192E-09
1475.28613	1.85203E-09
1475.41052	1.85215E-09
1475.53503	1.85228E-09
1475.65942	1.85241E-09
1475.78394	1.85255E-09
1475.90833	1.85269E-09
1476.03284	1.85285E-09
1476.15723	1.85302E-09
1476.28174	1.85319E-09
1476.40613	1.85338E-09
1476.53064	1.85357E-09
1476.65515	1.85378E-09
1476.77954	1.85399E-09
1476.90405	1.85422E-09
1477.02844	1.85446E-09
1477.15295	1.85471E-09
1477.27734	1.85497E-09
1477.40186	1.85525E-09
1477.52625	1.85554E-09
1477.65076	1.85585E-09
1477.77515	1.85616E-09
1477.89966	1.85649E-09
1478.02405	1.85684E-09
1478.14856	1.85720E-09
1478.27295	1.85758E-09
1478.39746	1.85797E-09
1478.52197	1.85837E-09
1478.64636	1.85880E-09
1478.77087	1.85924E-09
1478.89526	1.85969E-09
1479.01978	1.86016E-09
1479.14417	1.86065E-09
1479.26868	1.86115E-09
1479.39307	1.86167E-09
1479.51758	1.86221E-09
1479.64197	1.86276E-09
1479.76648	1.86333E-09
1479.89087	1.86392E-09
1480.01538	1.86452E-09
1480.13977	1.86514E-09
1480.26428	1.86578E-09
1480.38879	1.86644E-09
1480.51318	1.86711E-09
1480.63770	1.86780E-09
1480.76209	1.86851E-09
1480.88660	1.86923E-09
1481.01099	1.86997E-09
1481.13550	1.87073E-09
1481.25989	1.87151E-09
1481.38440	1.87230E-09
1481.50879	1.87311E-09
1481.63330	1.87393E-09
1481.75769	1.87477E-09
1481.88220	1.87563E-09
1482.00659	1.87650E-09
1482.13110	1.87739E-09
1482.25562	1.87830E-09
1482.38001	1.87922E-09
1482.50452	1.88015E-09
1482.62891	1.88111E-09
1482.75342	1.88207E-09
1482.87781	1.88306E-09
1483.00232	1.88405E-09
1483.12671	1.88506E-09
1483.25122	1.88609E-09
1483.37561	1.88712E-09
1483.50012	1.88817E-09
1483.62451	1.88923E-09
1483.74902	1.89031E-09
1483.87341	1.89139E-09
1483.99793	1.89249E-09
1484.12244	1.89360E-09
1484.24683	1.89471E-09
1484.37134	1.89584E-09
1484.49573	1.89698E-09
1484.62024	1.89812E-09
1484.74463	1.89928E-09
1484.86914	1.90044E-09
1484.99353	1.90161E-09
1485.11804	1.90279E-09
1485.24243	1.90398E-09
1485.36694	1.90517E-09
1485.49133	1.90637E-09
1485.61585	1.90758E-09
1485.74023	1.90879E-09
1485.86475	1.91001E-09
1485.98926	1.91123E-09
1486.11365	1.91246E-09
1486.23816	1.91369E-09
1486.36255	1.91492E-09
1486.48706	1.91616E-09
1486.61145	1.91740E-09
1486.73596	1.91864E-09
1486.86035	1.91989E-09
1486.98486	1.92114E-09
1487.10925	1.92239E-09
1487.23377	1.92364E-09
1487.35815	1.92490E-09
1487.48267	1.92615E-09
1487.60706	1.92741E-09
1487.73157	1.92866E-09
1487.85608	1.92992E-09
1487.98047	1.93118E-09
1488.10498	1.93244E-09
1488.22937	1.93370E-09
1488.35388	1.93496E-09
1488.47827	1.93622E-09
1488.60278	1.93748E-09
1488.72717	1.93874E-09
1488.85169	1.94000E-09
1488.97607	1.94127E-09
1489.10059	1.94253E-09
1489.22498	1.94379E-09
1489.34949	1.94505E-09
1489.47388	1.94632E-09
1489.59839	1.94758E-09
1489.72290	1.94884E-09
1489.84729	1.95011E-09
1489.97180	1.95138E-09
1490.09619	1.95264E-09
1490.22070	1.95391E-09
1490.34509	1.95518E-09
1490.46960	1.95646E-09
1490.59399	1.95773E-09
1490.71851	1.95901E-09
1490.84290	1.96029E-09
1490.96741	1.96157E-09
1491.09180	1.96286E-09
1491.21631	1.96414E-09
1491.34070	1.96544E-09
1491.46521	1.96674E-09
1491.58972	1.96804E-09
1491.71411	1.96935E-09
1491.83862	1.97066E-09
1491.96301	1.97198E-09
1492.08752	1.97330E-09
1492.21191	1.97463E-09
1492.33643	1.97597E-09
1492.46082	1.97731E-09
1492.58533	1.97866E-09
1492.70972	1.98002E-09
1492.83423	1.98139E-09
1492.95862	1.98277E-09
1493.08313	1.98416E-09
1493.20752	1.98555E-09
1493.33203	1.98696E-09
1493.45654	1.98838E-09
1493.58093	1.98980E-09
1493.70544	1.99124E-09
1493.82983	1.99269E-09
1493.95435	1.99416E-09
1494.07874	1.99563E-09
1494.20325	1.99712E-09
1494.32764	1.99863E-09
1494.45215	2.00014E-09
1494.57654	2.00168E-09
1494.70105	2.00322E-09
1494.82544	2.00478E-09
1494.94995	2.00636E-09
1495.07434	2.00796E-09
1495.19885	2.00957E-09
1495.32336	2.01119E-09
1495.44775	2.01284E-09
1495.57227	2.01450E-09
1495.69666	2.01618E-09
1495.82117	2.01788E-09
1495.94556	2.01960E-09
1496.07007	2.02133E-09
1496.19446	2.02309E-09
1496.31897	2.02487E-09
1496.44336	2.02667E-09
1496.56787	2.02849E-09
1496.69226	2.03032E-09
1496.81677	2.03219E-09
1496.94116	2.03407E-09
1497.06567	2.03597E-09
1497.19006	2.03790E-09
1497.31458	2.03984E-09
1497.43909	2.04182E-09
1497.56348	2.04381E-09
1497.68799	2.04583E-09
1497.81238	2.04787E-09
1497.93689	2.04993E-09
1498.06128	2.05201E-09
1498.18579	2.05412E-09
1498.31018	2.05626E-09
1498.43469	2.05842E-09
1498.55908	2.06060E-09
1498.68359	2.06280E-09
1498.80798	2.06503E-09
1498.93250	2.06728E-09
1499.05689	2.06956E-09
1499.18140	2.07186E-09
1499.30591	2.07418E-09
1499.43030	2.07653E-09
1499.55481	2.07890E-09
1499.67920	2.08129E-09
1499.80371	2.08371E-09
1499.92810	2.08615E-09
1500.05261	2.08862E-09
1500.17700	2.09111E-09
1500.30151	2.09362E-09
1500.42590	2.09615E-09
1500.55042	2.09871E-09
1500.67481	2.10128E-09
1500.79932	2.10388E-09
1500.92371	2.10650E-09
1501.04822	2.10914E-09
1501.17273	2.11181E-09
1501.29712	2.11449E-09
1501.42163	2.11720E-09
1501.54602	2.11992E-09
1501.67053	2.12267E-09
1501.79492	2.12543E-09
1501.91943	2.12822E-09
1502.04382	2.13103E-09
1502.16834	2.13385E-09
1502.29273	2.13669E-09
1502.41724	2.13955E-09
1502.54163	2.14242E-09
1502.66614	2.14532E-09
1502.79053	2.14823E-09
1502.91504	2.15116E-09
1503.03955	2.15411E-09
1503.16394	2.15708E-09
1503.28845	2.16006E-09
1503.41284	2.16306E-09
1503.53735	2.16607E-09
1503.66174	2.16910E-09
1503.78626	2.17215E-09
1503.91065	2.17521E-09
1504.03516	2.17830E-09
1504.15955	2.18139E-09
1504.28406	2.18450E-09
1504.40845	2.18763E-09
1504.53296	2.19077E-09
1504.65735	2.19393E-09
1504.78186	2.19711E-09
1504.90637	2.20030E-09
1505.03076	2.20351E-09
1505.15527	2.20674E-09
1505.27966	2.20998E-09
1505.40418	2.21324E-09
1505.52856	2.21652E-09
1505.65308	2.21982E-09
1505.77747	2.22314E-09
1505.90198	2.22647E-09
1506.02637	2.22982E-09
1506.15088	2.23319E-09
1506.27527	2.23658E-09
1506.39978	2.24000E-09
1506.52417	2.24344E-09
1506.64868	2.24689E-09
1506.77319	2.25037E-09
1506.89758	2.25388E-09
1507.02210	2.25740E-09
1507.14648	2.26095E-09
1507.27100	2.26453E-09
1507.39539	2.26814E-09
1507.51990	2.27177E-09
1507.64429	2.27543E-09
1507.76880	2.27911E-09
1507.89319	2.28283E-09
1508.01770	2.28657E-09
1508.14209	2.29036E-09
1508.26660	2.29417E-09
1508.39099	2.29801E-09
1508.51550	2.30190E-09
1508.64002	2.30582E-09
1508.76440	2.30977E-09
1508.88892	2.31376E-09
1509.01331	2.31780E-09
1509.13782	2.32187E-09
1509.26221	2.32598E-09
1509.38672	2.33014E-09
1509.51111	2.33434E-09
1509.63562	2.33859E-09
1509.76001	2.34289E-09
1509.88452	2.34723E-09
1510.00891	2.35162E-09
1510.13342	2.35606E-09
1510.25781	2.36056E-09
1510.38232	2.36511E-09
1510.50684	2.36971E-09
1510.63123	2.37438E-09
1510.75574	2.37910E-09
1510.88013	2.38388E-09
1511.00464	2.38872E-09
1511.12903	2.39362E-09
1511.25354	2.39859E-09
1511.37793	2.40362E-09
1511.50244	2.40872E-09
1511.62683	2.41389E-09
1511.75134	2.41913E-09
1511.87573	2.42444E-09
1512.00024	2.42983E-09
1512.12463	2.43528E-09
1512.24915	2.44082E-09
1512.37366	2.44644E-09
1512.49805	2.45213E-09
1512.62256	2.45790E-09
1512.74695	2.46376E-09
1512.87146	2.46970E-09
1512.99585	2.47573E-09
1513.12036	2.48185E-09
1513.24475	2.48806E-09
1513.36926	2.49436E-09
1513.49365	2.50075E-09
1513.61816	2.50723E-09
1513.74255	2.51382E-09
1513.86707	2.52050E-09
1513.99146	2.52728E-09
1514.11597	2.53417E-09
1514.24048	2.54115E-09
1514.36487	2.54825E-09
1514.48938	2.55545E-09
1514.61377	2.56276E-09
1514.73828	2.57019E-09
1514.86267	2.57772E-09
1514.98718	2.58538E-09
1515.11157	2.59314E-09
1515.23608	2.60103E-09
1515.36047	2.60904E-09
1515.48499	2.61717E-09
1515.60938	2.62543E-09
1515.73389	2.63381E-09
1515.85828	2.64233E-09
1515.98279	2.65098E-09
1516.10730	2.65976E-09
1516.23169	2.66868E-09
1516.35620	2.67774E-09
1516.48059	2.68694E-09
1516.60510	2.69629E-09
1516.72949	2.70578E-09
1516.85400	2.71543E-09
1516.97839	2.72523E-09
1517.10291	2.73518E-09
1517.22730	2.74530E-09
1517.35181	2.75558E-09
1517.47620	2.76603E-09
1517.60071	2.77665E-09
1517.72510	2.78745E-09
1517.84961	2.79843E-09
1517.97412	2.80960E-09
1518.09851	2.82095E-09
1518.22302	2.83250E-09
1518.34741	2.84425E-09
1518.47192	2.85620E-09
1518.59631	2.86837E-09
1518.72083	2.88076E-09
1518.84522	2.89338E-09
1518.96973	2.90622E-09
1519.09412	2.91931E-09
1519.21863	2.93265E-09
1519.34302	2.94625E-09
1519.46753	2.96010E-09
1519.59192	2.97425E-09
1519.71643	2.98868E-09
1519.84082	3.00341E-09
1519.96533	3.01845E-09
1520.08984	3.03382E-09
1520.21423	3.04953E-09
1520.33875	3.06558E-09
1520.46314	3.08201E-09
1520.58765	3.09882E-09
1520.71204	3.11602E-09
1520.83655	3.13365E-09
1520.96094	3.15172E-09
1521.08545	3.17025E-09
1521.20984	3.18926E-09
1521.33435	3.20878E-09
1521.45874	3.22883E-09
1521.58325	3.24944E-09
1521.70764	3.27064E-09
1521.83215	3.29246E-09
1521.95667	3.31493E-09
1522.08106	3.33808E-09
1522.20557	3.36197E-09
1522.32996	3.38662E-09
1522.45447	3.41207E-09
1522.57886	3.43839E-09
1522.70337	3.46560E-09
1522.82776	3.49378E-09
1522.95227	3.52296E-09
1523.07666	3.55322E-09
1523.20117	3.58463E-09
1523.32556	3.61725E-09
1523.45007	3.65115E-09
1523.57446	3.68644E-09
1523.69898	3.72318E-09
1523.82349	3.76148E-09
1523.94788	3.80144E-09
1524.07239	3.84317E-09
1524.19678	3.88681E-09
1524.32129	3.93248E-09
1524.44568	3.98033E-09
1524.57019	4.03052E-09
1524.69458	4.08323E-09
1524.81909	4.13865E-09
1524.94348	4.19699E-09
1525.06799	4.25848E-09
1525.19238	4.32339E-09
1525.31690	4.39198E-09
1525.44128	4.46459E-09
1525.56580	4.54157E-09
1525.69031	4.62330E-09
1525.81470	4.71023E-09
1525.93921	4.80285E-09
1526.06360	4.90170E-09
1526.18811	5.00741E-09
1526.31250	5.12070E-09
1526.43701	5.24237E-09
1526.56140	5.37337E-09
1526.68591	5.51475E-09
1526.81030	5.66775E-09
1526.93481	5.83382E-09
1527.05920	6.01467E-09
1527.18372	6.21233E-09
1527.30811	6.42923E-09
1527.43262	6.66833E-09
1527.55713	6.93333E-09
1527.68152	7.22886E-09
1527.80603	7.56089E-09
1527.93042	7.93723E-09
1528.05493	8.36860E-09
1528.17932	8.86986E-09
1528.30383	9.46239E-09
1528.42822	1.01782E-08
1528.55273	1.10664E-08
1528.67712	1.22040E-08
1528.80164	1.37105E-08
1528.92603	1.57428E-08
1529.05054	1.82745E-08
1529.17493	1.95041E-08