Wavenumber	NESR 15.67 cm-1
17.97255	2.34222E-09
18.14537	2.30500E-09
18.31818	2.26886E-09
18.49099	2.23386E-09
18.66381	2.20003E-09
18.83662	2.16738E-09
19.00943	2.13592E-09
19.18225	2.10567E-09
19.35506	2.07661E-09
19.52787	2.04874E-09
19.70068	2.02206E-09
19.87350	1.99654E-09
20.04631	1.97216E-09
20.21912	1.94891E-09
20.39194	1.92676E-09
20.56475	1.90569E-09
20.73756	1.88569E-09
20.91038	1.86671E-09
21.08319	1.84874E-09
21.25600	1.83174E-09
21.42881	1.81567E-09
21.60163	1.80054E-09
21.77444	1.78630E-09
21.94725	1.77293E-09
22.12007	1.76039E-09
22.29288	1.74866E-09
22.46569	1.73771E-09
22.63851	1.72752E-09
22.81132	1.71804E-09
22.98413	1.70928E-09
23.15695	1.70120E-09
23.32976	1.69376E-09
23.50257	1.68695E-09
23.67538	1.68075E-09
23.84820	1.67510E-09
24.02101	1.67002E-09
24.19382	1.66546E-09
24.36664	1.66139E-09
24.53945	1.65782E-09
24.71226	1.65469E-09
24.88508	1.65198E-09
25.05789	1.64969E-09
25.23070	1.64777E-09
25.40351	1.64621E-09
25.57633	1.64498E-09
25.74914	1.64407E-09
25.92195	1.64344E-09
26.09477	1.64309E-09
26.26758	1.64297E-09
26.44039	1.64307E-09
26.61321	1.64337E-09
26.78602	1.64384E-09
26.95883	1.64447E-09
27.13164	1.64523E-09
27.30446	1.64609E-09
27.47727	1.64705E-09
27.65008	1.64807E-09
27.82290	1.64914E-09
27.99571	1.65024E-09
28.16852	1.65134E-09
28.34134	1.65244E-09
28.51415	1.65351E-09
28.68696	1.65453E-09
28.85977	1.65550E-09
29.03259	1.65638E-09
29.20540	1.65718E-09
29.37821	1.65788E-09
29.55103	1.65846E-09
29.72384	1.65890E-09
29.89665	1.65922E-09
30.06947	1.65939E-09
30.24228	1.65940E-09
30.41509	1.65924E-09
30.58790	1.65892E-09
30.76072	1.65843E-09
30.93353	1.65777E-09
31.10634	1.65691E-09
31.27916	1.65589E-09
31.45197	1.65468E-09
31.62478	1.65329E-09
31.79760	1.65172E-09
31.97041	1.64998E-09
32.14322	1.64807E-09
32.31604	1.64599E-09
32.48885	1.64376E-09
32.66166	1.64136E-09
32.83447	1.63881E-09
33.00729	1.63613E-09
33.18010	1.63332E-09
33.35291	1.63038E-09
33.52573	1.62733E-09
33.69854	1.62417E-09
33.87135	1.62093E-09
34.04417	1.61760E-09
34.21698	1.61418E-09
34.38979	1.61072E-09
34.56260	1.60720E-09
34.73542	1.60363E-09
34.90823	1.60003E-09
35.08104	1.59641E-09
35.25386	1.59279E-09
35.42667	1.58916E-09
35.59948	1.58554E-09
35.77230	1.58194E-09
35.94511	1.57837E-09
36.11792	1.57484E-09
36.29073	1.57135E-09
36.46355	1.56792E-09
36.63636	1.56455E-09
36.80917	1.56125E-09
36.98199	1.55804E-09
37.15480	1.55490E-09
37.32761	1.55185E-09
37.50043	1.54890E-09
37.67324	1.54605E-09
37.84605	1.54330E-09
38.01886	1.54067E-09
38.19168	1.53815E-09
38.36449	1.53575E-09
38.53730	1.53346E-09
38.71012	1.53130E-09
38.88293	1.52926E-09
39.05574	1.52735E-09
39.22856	1.52556E-09
39.40137	1.52390E-09
39.57418	1.52237E-09
39.74699	1.52096E-09
39.91981	1.51968E-09
40.09262	1.51853E-09
40.26543	1.51749E-09
40.43825	1.51657E-09
40.61106	1.51577E-09
40.78387	1.51509E-09
40.95669	1.51452E-09
41.12950	1.51406E-09
41.30231	1.51370E-09
41.47513	1.51345E-09
41.64794	1.51329E-09
41.82075	1.51323E-09
41.99356	1.51325E-09
42.16638	1.51335E-09
42.33919	1.51353E-09
42.51200	1.51378E-09
42.68482	1.51410E-09
42.85763	1.51448E-09
43.03044	1.51491E-09
43.20326	1.51540E-09
43.37607	1.51592E-09
43.54888	1.51649E-09
43.72169	1.51708E-09
43.89451	1.51770E-09
44.06732	1.51834E-09
44.24013	1.51899E-09
44.41295	1.51966E-09
44.58576	1.52033E-09
44.75857	1.52099E-09
44.93139	1.52165E-09
45.10420	1.52230E-09
45.27701	1.52293E-09
45.44982	1.52353E-09
45.62264	1.52412E-09
45.79545	1.52467E-09
45.96826	1.52520E-09
46.14108	1.52568E-09
46.31389	1.52613E-09
46.48670	1.52653E-09
46.65952	1.52689E-09
46.83233	1.52720E-09
47.00514	1.52747E-09
47.17795	1.52767E-09
47.35077	1.52784E-09
47.52358	1.52795E-09
47.69639	1.52801E-09
47.86921	1.52801E-09
48.04202	1.52796E-09
48.21483	1.52786E-09
48.38765	1.52770E-09
48.56046	1.52749E-09
48.73327	1.52724E-09
48.90608	1.52695E-09
49.07890	1.52659E-09
49.25171	1.52621E-09
49.42452	1.52577E-09
49.59734	1.52530E-09
49.77015	1.52479E-09
49.94296	1.52425E-09
50.11578	1.52368E-09
50.28859	1.52307E-09
50.46140	1.52245E-09
50.63422	1.52180E-09
50.80703	1.52113E-09
50.97984	1.52045E-09
51.15265	1.51976E-09
51.32547	1.51906E-09
51.49828	1.51836E-09
51.67109	1.51765E-09
51.84391	1.51696E-09
52.01672	1.51625E-09
52.18953	1.51557E-09
52.36235	1.51490E-09
52.53516	1.51424E-09
52.70797	1.51360E-09
52.88078	1.51298E-09
53.05360	1.51239E-09
53.22641	1.51183E-09
53.39922	1.51129E-09
53.57204	1.51079E-09
53.74485	1.51031E-09
53.91766	1.50988E-09
54.09048	1.50948E-09
54.26329	1.50912E-09
54.43610	1.50880E-09
54.60891	1.50853E-09
54.78173	1.50830E-09
54.95454	1.50810E-09
55.12735	1.50796E-09
55.30017	1.50786E-09
55.47298	1.50780E-09
55.64579	1.50779E-09
55.81861	1.50782E-09
55.99142	1.50790E-09
56.16423	1.50802E-09
56.33704	1.50819E-09
56.50986	1.50839E-09
56.68267	1.50863E-09
56.85548	1.50892E-09
57.02830	1.50924E-09
57.20111	1.50959E-09
57.37392	1.50998E-09
57.54674	1.51040E-09
57.71955	1.51086E-09
57.89236	1.51133E-09
58.06517	1.51184E-09
58.23799	1.51237E-09
58.41080	1.51291E-09
58.58361	1.51348E-09
58.75643	1.51405E-09
58.92924	1.51464E-09
59.10205	1.51524E-09
59.27487	1.51584E-09
59.44768	1.51645E-09
59.62049	1.51707E-09
59.79331	1.51767E-09
59.96612	1.51828E-09
60.13893	1.51887E-09
60.31174	1.51946E-09
60.48456	1.52003E-09
60.65737	1.52059E-09
60.83018	1.52113E-09
61.00300	1.52165E-09
61.17581	1.52215E-09
61.34862	1.52264E-09
61.52144	1.52309E-09
61.69425	1.52351E-09
61.86706	1.52391E-09
62.03987	1.52427E-09
62.21269	1.52461E-09
62.38550	1.52491E-09
62.55831	1.52519E-09
62.73113	1.52543E-09
62.90394	1.52562E-09
63.07675	1.52579E-09
63.24957	1.52593E-09
63.42238	1.52603E-09
63.59519	1.52610E-09
63.76800	1.52612E-09
63.94082	1.52612E-09
64.11363	1.52608E-09
64.28644	1.52602E-09
64.45926	1.52591E-09
64.63207	1.52578E-09
64.80488	1.52562E-09
64.97770	1.52543E-09
65.15051	1.52522E-09
65.32332	1.52498E-09
65.49613	1.52472E-09
65.66895	1.52444E-09
65.84176	1.52414E-09
66.01457	1.52381E-09
66.18739	1.52348E-09
66.36020	1.52313E-09
66.53301	1.52276E-09
66.70583	1.52239E-09
66.87864	1.52202E-09
67.05145	1.52163E-09
67.22426	1.52123E-09
67.39708	1.52084E-09
67.56989	1.52045E-09
67.74270	1.52006E-09
67.91552	1.51966E-09
68.08833	1.51929E-09
68.26114	1.51890E-09
68.43396	1.51854E-09
68.60677	1.51817E-09
68.77958	1.51783E-09
68.95240	1.51748E-09
69.12521	1.51716E-09
69.29802	1.51685E-09
69.47083	1.51655E-09
69.64365	1.51628E-09
69.81646	1.51602E-09
69.98927	1.51578E-09
70.16209	1.51555E-09
70.33490	1.51536E-09
70.50771	1.51517E-09
70.68053	1.51501E-09
70.85334	1.51487E-09
71.02615	1.51474E-09
71.19896	1.51463E-09
71.37178	1.51455E-09
71.54459	1.51448E-09
71.71740	1.51443E-09
71.89022	1.51440E-09
72.06303	1.51438E-09
72.23584	1.51439E-09
72.40866	1.51441E-09
72.58147	1.51444E-09
72.75428	1.51448E-09
72.92709	1.51453E-09
73.09991	1.51459E-09
73.27272	1.51467E-09
73.44553	1.51475E-09
73.61835	1.51484E-09
73.79116	1.51492E-09
73.96397	1.51501E-09
74.13679	1.51511E-09
74.30960	1.51520E-09
74.48241	1.51530E-09
74.65522	1.51539E-09
74.82804	1.51547E-09
75.00085	1.51554E-09
75.17366	1.51561E-09
75.34648	1.51566E-09
75.51929	1.51571E-09
75.69210	1.51574E-09
75.86492	1.51576E-09
76.03773	1.51575E-09
76.21054	1.51574E-09
76.38335	1.51570E-09
76.55617	1.51564E-09
76.72898	1.51556E-09
76.90179	1.51546E-09
77.07461	1.51533E-09
77.24742	1.51519E-09
77.42023	1.51501E-09
77.59305	1.51482E-09
77.76586	1.51459E-09
77.93867	1.51434E-09
78.11149	1.51407E-09
78.28430	1.51376E-09
78.45711	1.51343E-09
78.62992	1.51308E-09
78.80274	1.51269E-09
78.97555	1.51228E-09
79.14836	1.51186E-09
79.32118	1.51139E-09
79.49399	1.51091E-09
79.66680	1.51040E-09
79.83962	1.50987E-09
80.01243	1.50931E-09
80.18524	1.50874E-09
80.35805	1.50814E-09
80.53087	1.50753E-09
80.70368	1.50689E-09
80.87649	1.50625E-09
81.04931	1.50558E-09
81.22212	1.50491E-09
81.39493	1.50421E-09
81.56775	1.50350E-09
81.74056	1.50278E-09
81.91337	1.50206E-09
82.08618	1.50132E-09
82.25900	1.50057E-09
82.43181	1.49983E-09
82.60462	1.49908E-09
82.77744	1.49832E-09
82.95025	1.49757E-09
83.12306	1.49681E-09
83.29588	1.49605E-09
83.46869	1.49530E-09
83.64150	1.49455E-09
83.81431	1.49380E-09
83.98713	1.49306E-09
84.15994	1.49232E-09
84.33275	1.49159E-09
84.50557	1.49086E-09
84.67838	1.49014E-09
84.85119	1.48944E-09
85.02401	1.48873E-09
85.19682	1.48803E-09
85.36963	1.48735E-09
85.54244	1.48668E-09
85.71526	1.48601E-09
85.88807	1.48535E-09
86.06088	1.48469E-09
86.23370	1.48405E-09
86.40651	1.48342E-09
86.57932	1.48280E-09
86.75214	1.48218E-09
86.92495	1.48156E-09
87.09776	1.48096E-09
87.27058	1.48037E-09
87.44339	1.47977E-09
87.61620	1.47918E-09
87.78901	1.47860E-09
87.96183	1.47802E-09
88.13464	1.47745E-09
88.30745	1.47687E-09
88.48027	1.47629E-09
88.65308	1.47570E-09
88.82589	1.47513E-09
88.99871	1.47454E-09
89.17152	1.47395E-09
89.34433	1.47336E-09
89.51714	1.47275E-09
89.68996	1.47213E-09
89.86277	1.47152E-09
90.03558	1.47089E-09
90.20840	1.47024E-09
90.38121	1.46959E-09
90.55402	1.46892E-09
90.72684	1.46824E-09
90.89965	1.46755E-09
91.07246	1.46683E-09
91.24527	1.46611E-09
91.41809	1.46536E-09
91.59090	1.46459E-09
91.76371	1.46380E-09
91.93653	1.46300E-09
92.10934	1.46217E-09
92.28215	1.46132E-09
92.45497	1.46046E-09
92.62778	1.45957E-09
92.80059	1.45866E-09
92.97340	1.45773E-09
93.14622	1.45678E-09
93.31903	1.45580E-09
93.49184	1.45480E-09
93.66466	1.45379E-09
93.83747	1.45275E-09
94.01028	1.45169E-09
94.18310	1.45062E-09
94.35591	1.44953E-09
94.52872	1.44841E-09
94.70153	1.44728E-09
94.87435	1.44613E-09
95.04716	1.44497E-09
95.21997	1.44379E-09
95.39279	1.44260E-09
95.56560	1.44140E-09
95.73841	1.44019E-09
95.91123	1.43897E-09
96.08404	1.43773E-09
96.25685	1.43649E-09
96.42967	1.43524E-09
96.60248	1.43400E-09
96.77529	1.43275E-09
96.94810	1.43149E-09
97.12092	1.43023E-09
97.29373	1.42898E-09
97.46654	1.42773E-09
97.63936	1.42648E-09
97.81217	1.42524E-09
97.98498	1.42400E-09
98.15780	1.42277E-09
98.33061	1.42155E-09
98.50342	1.42035E-09
98.67623	1.41914E-09
98.84905	1.41795E-09
99.02186	1.41678E-09
99.19467	1.41562E-09
99.36749	1.41448E-09
99.54030	1.41334E-09
99.71311	1.41223E-09
99.88593	1.41114E-09
100.05874	1.41006E-09
100.23155	1.40899E-09
100.40436	1.40795E-09
100.57718	1.40693E-09
100.74999	1.40592E-09
100.92280	1.40493E-09
101.09562	1.40397E-09
101.26843	1.40302E-09
101.44124	1.40209E-09
101.61406	1.40118E-09
101.78687	1.40030E-09
101.95968	1.39943E-09
102.13249	1.39858E-09
102.30531	1.39774E-09
102.47812	1.39693E-09
102.65093	1.39613E-09
102.82375	1.39535E-09
102.99656	1.39459E-09
103.16937	1.39383E-09
103.34219	1.39310E-09
103.51500	1.39238E-09
103.68781	1.39166E-09
103.86062	1.39096E-09
104.03344	1.39027E-09
104.20625	1.38960E-09
104.37906	1.38894E-09
104.55188	1.38827E-09
104.72469	1.38762E-09
104.89750	1.38697E-09
105.07032	1.38632E-09
105.24313	1.38568E-09
105.41594	1.38503E-09
105.58876	1.38439E-09
105.76157	1.38375E-09
105.93438	1.38310E-09
106.10719	1.38246E-09
106.28001	1.38181E-09
106.45282	1.38116E-09
106.62563	1.38050E-09
106.79845	1.37983E-09
106.97126	1.37916E-09
107.14407	1.37848E-09
107.31689	1.37779E-09
107.48970	1.37710E-09
107.66251	1.37638E-09
107.83532	1.37566E-09
108.00814	1.37493E-09
108.18095	1.37418E-09
108.35376	1.37342E-09
108.52658	1.37266E-09
108.69939	1.37187E-09
108.87220	1.37108E-09
109.04502	1.37027E-09
109.21783	1.36946E-09
109.39064	1.36862E-09
109.56345	1.36777E-09
109.73627	1.36691E-09
109.90908	1.36604E-09
110.08189	1.36516E-09
110.25471	1.36427E-09
110.42752	1.36335E-09
110.60033	1.36243E-09
110.77315	1.36151E-09
110.94596	1.36057E-09
111.11877	1.35962E-09
111.29158	1.35867E-09
111.46440	1.35770E-09
111.63721	1.35673E-09
111.81002	1.35575E-09
111.98284	1.35478E-09
112.15565	1.35379E-09
112.32846	1.35280E-09
112.50128	1.35182E-09
112.67409	1.35084E-09
112.84690	1.34985E-09
113.01972	1.34887E-09
113.19253	1.34789E-09
113.36534	1.34692E-09
113.53815	1.34594E-09
113.71097	1.34498E-09
113.88378	1.34403E-09
114.05659	1.34308E-09
114.22941	1.34215E-09
114.40222	1.34122E-09
114.57503	1.34031E-09
114.74785	1.33942E-09
114.92066	1.33853E-09
115.09347	1.33766E-09
115.26628	1.33680E-09
115.43910	1.33596E-09
115.61191	1.33514E-09
115.78472	1.33434E-09
115.95754	1.33356E-09
116.13035	1.33280E-09
116.30316	1.33205E-09
116.47598	1.33132E-09
116.64879	1.33062E-09
116.82160	1.32994E-09
116.99441	1.32928E-09
117.16723	1.32864E-09
117.34004	1.32803E-09
117.51285	1.32744E-09
117.68567	1.32688E-09
117.85848	1.32633E-09
118.03129	1.32581E-09
118.20411	1.32532E-09
118.37692	1.32485E-09
118.54973	1.32441E-09
118.72254	1.32398E-09
118.89536	1.32358E-09
119.06817	1.32320E-09
119.24098	1.32286E-09
119.41380	1.32253E-09
119.58661	1.32222E-09
119.75942	1.32194E-09
119.93224	1.32168E-09
120.10505	1.32145E-09
120.27786	1.32123E-09
120.45067	1.32104E-09
120.62349	1.32087E-09
120.79630	1.32072E-09
120.96911	1.32059E-09
121.14193	1.32048E-09
121.31474	1.32040E-09
121.48755	1.32033E-09
121.66037	1.32028E-09
121.83318	1.32025E-09
122.00599	1.32025E-09
122.17881	1.32025E-09
122.35162	1.32029E-09
122.52443	1.32034E-09
122.69724	1.32040E-09
122.87006	1.32048E-09
123.04287	1.32058E-09
123.21568	1.32069E-09
123.38850	1.32083E-09
123.56131	1.32098E-09
123.73412	1.32115E-09
123.90694	1.32134E-09
124.07975	1.32154E-09
124.25256	1.32176E-09
124.42537	1.32199E-09
124.59819	1.32224E-09
124.77100	1.32252E-09
124.94381	1.32280E-09
125.11663	1.32311E-09
125.28944	1.32344E-09
125.46225	1.32378E-09
125.63507	1.32414E-09
125.80788	1.32452E-09
125.98069	1.32492E-09
126.15350	1.32533E-09
126.32632	1.32577E-09
126.49913	1.32623E-09
126.67194	1.32671E-09
126.84476	1.32721E-09
127.01757	1.32773E-09
127.19038	1.32827E-09
127.36320	1.32884E-09
127.53601	1.32943E-09
127.70882	1.33005E-09
127.88163	1.33068E-09
128.05445	1.33135E-09
128.22726	1.33204E-09
128.40007	1.33275E-09
128.57289	1.33348E-09
128.74570	1.33425E-09
128.91851	1.33504E-09
129.09133	1.33586E-09
129.26414	1.33671E-09
129.43695	1.33758E-09
129.60976	1.33848E-09
129.78258	1.33941E-09
129.95539	1.34037E-09
130.12820	1.34135E-09
130.30102	1.34237E-09
130.47383	1.34341E-09
130.64664	1.34448E-09
130.81946	1.34558E-09
130.99227	1.34671E-09
131.16508	1.34786E-09
131.33790	1.34905E-09
131.51071	1.35027E-09
131.68352	1.35151E-09
131.85633	1.35279E-09
132.02915	1.35409E-09
132.20196	1.35542E-09
132.37477	1.35678E-09
132.54759	1.35816E-09
132.72040	1.35957E-09
132.89321	1.36100E-09
133.06603	1.36245E-09
133.23884	1.36393E-09
133.41165	1.36544E-09
133.58446	1.36696E-09
133.75728	1.36850E-09
133.93009	1.37007E-09
134.10290	1.37166E-09
134.27572	1.37326E-09
134.44853	1.37488E-09
134.62134	1.37651E-09
134.79416	1.37817E-09
134.96697	1.37983E-09
135.13978	1.38151E-09
135.31259	1.38320E-09
135.48541	1.38490E-09
135.65822	1.38660E-09
135.83103	1.38833E-09
136.00385	1.39004E-09
136.17666	1.39178E-09
136.34947	1.39351E-09
136.52229	1.39524E-09
136.69510	1.39698E-09
136.86791	1.39872E-09
137.04072	1.40045E-09
137.21354	1.40219E-09
137.38635	1.40393E-09
137.55916	1.40566E-09
137.73198	1.40739E-09
137.90479	1.40912E-09
138.07760	1.41084E-09
138.25042	1.41255E-09
138.42323	1.41426E-09
138.59604	1.41595E-09
138.76885	1.41764E-09
138.94167	1.41932E-09
139.11448	1.42099E-09
139.28729	1.42266E-09
139.46011	1.42431E-09
139.63292	1.42595E-09
139.80573	1.42758E-09
139.97855	1.42921E-09
140.15136	1.43082E-09
140.32417	1.43242E-09
140.49699	1.43401E-09
140.66980	1.43559E-09
140.84261	1.43716E-09
141.01542	1.43872E-09
141.18824	1.44028E-09
141.36105	1.44183E-09
141.53386	1.44338E-09
141.70668	1.44491E-09
141.87949	1.44644E-09
142.05230	1.44797E-09
142.22512	1.44950E-09
142.39793	1.45103E-09
142.57074	1.45255E-09
142.74355	1.45407E-09
142.91637	1.45560E-09
143.08918	1.45712E-09
143.26199	1.45867E-09
143.43481	1.46021E-09
143.60762	1.46175E-09
143.78043	1.46331E-09
143.95325	1.46487E-09
144.12606	1.46645E-09
144.29887	1.46805E-09
144.47168	1.46965E-09
144.64450	1.47126E-09
144.81731	1.47290E-09
144.99012	1.47455E-09
145.16294	1.47623E-09
145.33575	1.47791E-09
145.50856	1.47963E-09
145.68138	1.48136E-09
145.85419	1.48312E-09
146.02700	1.48490E-09
146.19981	1.48670E-09
146.37263	1.48853E-09
146.54544	1.49040E-09
146.71825	1.49229E-09
146.89107	1.49421E-09
147.06388	1.49616E-09
147.23669	1.49814E-09
147.40951	1.50015E-09
147.58232	1.50218E-09
147.75513	1.50426E-09
147.92794	1.50636E-09
148.10076	1.50849E-09
148.27357	1.51066E-09
148.44638	1.51286E-09
148.61920	1.51508E-09
148.79201	1.51734E-09
148.96482	1.51964E-09
149.13764	1.52196E-09
149.31045	1.52430E-09
149.48326	1.52669E-09
149.65608	1.52910E-09
149.82889	1.53154E-09
150.00170	1.53400E-09
150.17451	1.53650E-09
150.34733	1.53900E-09
150.52014	1.54155E-09
150.69295	1.54412E-09
150.86577	1.54671E-09
151.03858	1.54931E-09
151.21139	1.55194E-09
151.38421	1.55459E-09
151.55702	1.55725E-09
151.72983	1.55993E-09
151.90264	1.56264E-09
152.07546	1.56534E-09
152.24827	1.56807E-09
152.42108	1.57079E-09
152.59390	1.57353E-09
152.76671	1.57628E-09
152.93952	1.57904E-09
153.11234	1.58180E-09
153.28515	1.58457E-09
153.45796	1.58733E-09
153.63077	1.59010E-09
153.80359	1.59287E-09
153.97640	1.59564E-09
154.14921	1.59840E-09
154.32203	1.60117E-09
154.49484	1.60392E-09
154.66765	1.60667E-09
154.84047	1.60942E-09
155.01328	1.61216E-09
155.18609	1.61490E-09
155.35890	1.61763E-09
155.53172	1.62034E-09
155.70453	1.62306E-09
155.87734	1.62576E-09
156.05016	1.62844E-09
156.22297	1.63113E-09
156.39578	1.63380E-09
156.56860	1.63647E-09
156.74141	1.63914E-09
156.91422	1.64178E-09
157.08703	1.64442E-09
157.25985	1.64706E-09
157.43266	1.64970E-09
157.60547	1.65233E-09
157.77829	1.65495E-09
157.95110	1.65757E-09
158.12391	1.66018E-09
158.29673	1.66281E-09
158.46954	1.66543E-09
158.64235	1.66804E-09
158.81517	1.67067E-09
158.98798	1.67330E-09
159.16079	1.67593E-09
159.33360	1.67857E-09
159.50642	1.68122E-09
159.67923	1.68387E-09
159.85204	1.68654E-09
160.02486	1.68922E-09
160.19767	1.69193E-09
160.37048	1.69463E-09
160.54330	1.69737E-09
160.71611	1.70012E-09
160.88892	1.70290E-09
161.06173	1.70569E-09
161.23455	1.70851E-09
161.40736	1.71136E-09
161.58017	1.71423E-09
161.75299	1.71713E-09
161.92580	1.72006E-09
162.09861	1.72301E-09
162.27143	1.72600E-09
162.44424	1.72903E-09
162.61705	1.73208E-09
162.78986	1.73518E-09
162.96268	1.73829E-09
163.13549	1.74146E-09
163.30830	1.74465E-09
163.48112	1.74786E-09
163.65393	1.75113E-09
163.82674	1.75442E-09
163.99956	1.75775E-09
164.17237	1.76111E-09
164.34518	1.76451E-09
164.51799	1.76793E-09
164.69081	1.77140E-09
164.86362	1.77490E-09
165.03643	1.77842E-09
165.20925	1.78198E-09
165.38206	1.78555E-09
165.55487	1.78917E-09
165.72769	1.79280E-09
165.90050	1.79645E-09
166.07331	1.80012E-09
166.24612	1.80382E-09
166.41894	1.80753E-09
166.59175	1.81125E-09
166.76456	1.81499E-09
166.93738	1.81874E-09
167.11019	1.82250E-09
167.28300	1.82626E-09
167.45582	1.83004E-09
167.62863	1.83379E-09
167.80144	1.83756E-09
167.97426	1.84131E-09
168.14707	1.84506E-09
168.31988	1.84879E-09
168.49269	1.85252E-09
168.66551	1.85622E-09
168.83832	1.85991E-09
169.01113	1.86357E-09
169.18395	1.86722E-09
169.35676	1.87083E-09
169.52957	1.87441E-09
169.70239	1.87796E-09
169.87520	1.88147E-09
170.04801	1.88495E-09
170.22082	1.88838E-09
170.39364	1.89177E-09
170.56645	1.89513E-09
170.73926	1.89844E-09
170.91208	1.90170E-09
171.08489	1.90489E-09
171.25770	1.90806E-09
171.43052	1.91115E-09
171.60333	1.91420E-09
171.77614	1.91721E-09
171.94895	1.92015E-09
172.12177	1.92304E-09
172.29458	1.92588E-09
172.46739	1.92865E-09
172.64021	1.93137E-09
172.81302	1.93404E-09
172.98583	1.93665E-09
173.15865	1.93922E-09
173.33146	1.94173E-09
173.50427	1.94420E-09
173.67708	1.94660E-09
173.84990	1.94896E-09
174.02271	1.95128E-09
174.19552	1.95356E-09
174.36834	1.95579E-09
174.54115	1.95797E-09
174.71396	1.96013E-09
174.88678	1.96224E-09
175.05959	1.96433E-09
175.23240	1.96637E-09
175.40521	1.96841E-09
175.57803	1.97041E-09
175.75084	1.97237E-09
175.92365	1.97434E-09
176.09647	1.97629E-09
176.26928	1.97824E-09
176.44209	1.98015E-09
176.61491	1.98208E-09
176.78772	1.98401E-09
176.96053	1.98592E-09
177.13335	1.98784E-09
177.30616	1.98979E-09
177.47897	1.99173E-09
177.65178	1.99370E-09
177.82460	1.99566E-09
177.99741	1.99765E-09
178.17022	1.99969E-09
178.34304	2.00173E-09
178.51585	2.00380E-09
178.68866	2.00591E-09
178.86148	2.00805E-09
179.03429	2.01022E-09
179.20710	2.01242E-09
179.37991	2.01468E-09
179.55273	2.01696E-09
179.72554	2.01930E-09
179.89835	2.02167E-09
180.07117	2.02411E-09
180.24398	2.02656E-09
180.41679	2.02908E-09
180.58961	2.03165E-09
180.76242	2.03427E-09
180.93523	2.03692E-09
181.10804	2.03962E-09
181.28086	2.04237E-09
181.45367	2.04517E-09
181.62648	2.04801E-09
181.79930	2.05091E-09
181.97211	2.05383E-09
182.14492	2.05680E-09
182.31774	2.05981E-09
182.49055	2.06287E-09
182.66336	2.06597E-09
182.83617	2.06910E-09
183.00899	2.07225E-09
183.18180	2.07545E-09
183.35461	2.07866E-09
183.52743	2.08191E-09
183.70024	2.08516E-09
183.87305	2.08844E-09
184.04587	2.09175E-09
184.21868	2.09505E-09
184.39149	2.09837E-09
184.56430	2.10170E-09
184.73712	2.10501E-09
184.90993	2.10833E-09
185.08274	2.11165E-09
185.25556	2.11494E-09
185.42837	2.11822E-09
185.60118	2.12149E-09
185.77400	2.12473E-09
185.94681	2.12795E-09
186.11962	2.13114E-09
186.29244	2.13430E-09
186.46525	2.13741E-09
186.63806	2.14049E-09
186.81087	2.14352E-09
186.98369	2.14650E-09
187.15650	2.14941E-09
187.32931	2.15228E-09
187.50213	2.15509E-09
187.67494	2.15784E-09
187.84775	2.16052E-09
188.02057	2.16313E-09
188.19338	2.16568E-09
188.36619	2.16814E-09
188.53900	2.17053E-09
188.71182	2.17284E-09
188.88463	2.17508E-09
189.05744	2.17723E-09
189.23026	2.17930E-09
189.40307	2.18129E-09
189.57588	2.18319E-09
189.74870	2.18501E-09
189.92151	2.18674E-09
190.09432	2.18839E-09
190.26713	2.18995E-09
190.43995	2.19143E-09
190.61276	2.19282E-09
190.78557	2.19413E-09
190.95839	2.19536E-09
191.13120	2.19651E-09
191.30401	2.19758E-09
191.47683	2.19857E-09
191.64964	2.19949E-09
191.82245	2.20033E-09
191.99526	2.20110E-09
192.16808	2.20181E-09
192.34089	2.20244E-09
192.51370	2.20301E-09
192.68652	2.20353E-09
192.85933	2.20397E-09
193.03214	2.20437E-09
193.20496	2.20472E-09
193.37777	2.20502E-09
193.55058	2.20527E-09
193.72339	2.20548E-09
193.89621	2.20565E-09
194.06902	2.20579E-09
194.24183	2.20589E-09
194.41465	2.20596E-09
194.58746	2.20601E-09
194.76027	2.20604E-09
194.93309	2.20605E-09
195.10590	2.20604E-09
195.27871	2.20601E-09
195.45153	2.20598E-09
195.62434	2.20594E-09
195.79715	2.20590E-09
195.96996	2.20586E-09
196.14278	2.20581E-09
196.31559	2.20578E-09
196.48840	2.20574E-09
196.66122	2.20572E-09
196.83403	2.20571E-09
197.00684	2.20571E-09
197.17966	2.20573E-09
197.35247	2.20576E-09
197.52528	2.20581E-09
197.69809	2.20588E-09
197.87091	2.20597E-09
198.04372	2.20609E-09
198.21653	2.20623E-09
198.38935	2.20639E-09
198.56216	2.20657E-09
198.73497	2.20678E-09
198.90779	2.20702E-09
199.08060	2.20729E-09
199.25341	2.20757E-09
199.42622	2.20788E-09
199.59904	2.20822E-09
199.77185	2.20859E-09
199.94466	2.20898E-09
200.11748	2.20940E-09
200.29029	2.20983E-09
200.46310	2.21029E-09
200.63592	2.21077E-09
200.80873	2.21128E-09
200.98154	2.21181E-09
201.15435	2.21236E-09
201.32717	2.21293E-09
201.49998	2.21351E-09
201.67279	2.21411E-09
201.84561	2.21472E-09
202.01842	2.21536E-09
202.19123	2.21600E-09
202.36405	2.21666E-09
202.53686	2.21732E-09
202.70967	2.21800E-09
202.88248	2.21868E-09
203.05530	2.21937E-09
203.22811	2.22006E-09
203.40092	2.22076E-09
203.57374	2.22146E-09
203.74655	2.22216E-09
203.91936	2.22286E-09
204.09218	2.22357E-09
204.26499	2.22427E-09
204.43780	2.22497E-09
204.61062	2.22566E-09
204.78343	2.22635E-09
204.95624	2.22704E-09
205.12905	2.22772E-09
205.30187	2.22839E-09
205.47468	2.22905E-09
205.64749	2.22972E-09
205.82031	2.23036E-09
205.99312	2.23101E-09
206.16593	2.23164E-09
206.33875	2.23226E-09
206.51156	2.23287E-09
206.68437	2.23347E-09
206.85718	2.23407E-09
207.03000	2.23465E-09
207.20281	2.23523E-09
207.37562	2.23579E-09
207.54844	2.23635E-09
207.72125	2.23691E-09
207.89406	2.23745E-09
208.06688	2.23799E-09
208.23969	2.23853E-09
208.41250	2.23905E-09
208.58531	2.23957E-09
208.75813	2.24009E-09
208.93094	2.24060E-09
209.10375	2.24111E-09
209.27657	2.24161E-09
209.44938	2.24212E-09
209.62219	2.24263E-09
209.79501	2.24313E-09
209.96782	2.24364E-09
210.14063	2.24415E-09
210.31344	2.24465E-09
210.48626	2.24517E-09
210.65907	2.24568E-09
210.83188	2.24620E-09
211.00470	2.24672E-09
211.17751	2.24724E-09
211.35032	2.24778E-09
211.52314	2.24832E-09
211.69595	2.24886E-09
211.86876	2.24942E-09
212.04157	2.24997E-09
212.21439	2.25055E-09
212.38720	2.25112E-09
212.56001	2.25170E-09
212.73283	2.25229E-09
212.90564	2.25289E-09
213.07845	2.25350E-09
213.25127	2.25412E-09
213.42408	2.25474E-09
213.59689	2.25537E-09
213.76971	2.25601E-09
213.94252	2.25666E-09
214.11533	2.25731E-09
214.28814	2.25797E-09
214.46096	2.25865E-09
214.63377	2.25933E-09
214.80658	2.26001E-09
214.97940	2.26070E-09
215.15221	2.26140E-09
215.32502	2.26210E-09
215.49784	2.26281E-09
215.67065	2.26352E-09
215.84346	2.26423E-09
216.01627	2.26495E-09
216.18909	2.26568E-09
216.36190	2.26640E-09
216.53471	2.26712E-09
216.70753	2.26784E-09
216.88034	2.26857E-09
217.05315	2.26929E-09
217.22597	2.27001E-09
217.39878	2.27073E-09
217.57159	2.27144E-09
217.74440	2.27216E-09
217.91722	2.27287E-09
218.09003	2.27358E-09
218.26284	2.27428E-09
218.43566	2.27498E-09
218.60847	2.27568E-09
218.78128	2.27638E-09
218.95410	2.27706E-09
219.12691	2.27775E-09
219.29972	2.27843E-09
219.47253	2.27911E-09
219.64535	2.27978E-09
219.81816	2.28044E-09
219.99097	2.28110E-09
220.16379	2.28176E-09
220.33660	2.28242E-09
220.50941	2.28307E-09
220.68223	2.28372E-09
220.85504	2.28436E-09
221.02785	2.28501E-09
221.20066	2.28566E-09
221.37348	2.28631E-09
221.54629	2.28696E-09
221.71910	2.28761E-09
221.89192	2.28827E-09
222.06473	2.28893E-09
222.23754	2.28959E-09
222.41036	2.29027E-09
222.58317	2.29094E-09
222.75598	2.29163E-09
222.92880	2.29233E-09
223.10161	2.29303E-09
223.27442	2.29375E-09
223.44723	2.29448E-09
223.62005	2.29522E-09
223.79286	2.29598E-09
223.96567	2.29675E-09
224.13849	2.29754E-09
224.31130	2.29835E-09
224.48411	2.29917E-09
224.65693	2.30001E-09
224.82974	2.30088E-09
225.00255	2.30177E-09
225.17536	2.30269E-09
225.34818	2.30362E-09
225.52099	2.30459E-09
225.69380	2.30558E-09
225.86662	2.30660E-09
226.03943	2.30765E-09
226.21224	2.30872E-09
226.38506	2.30983E-09
226.55787	2.31096E-09
226.73068	2.31212E-09
226.90349	2.31332E-09
227.07631	2.31454E-09
227.24912	2.31580E-09
227.42193	2.31708E-09
227.59475	2.31841E-09
227.76756	2.31976E-09
227.94037	2.32113E-09
228.11319	2.32255E-09
228.28600	2.32399E-09
228.45881	2.32548E-09
228.63162	2.32699E-09
228.80444	2.32853E-09
228.97725	2.33011E-09
229.15006	2.33171E-09
229.32288	2.33335E-09
229.49569	2.33501E-09
229.66850	2.33671E-09
229.84132	2.33844E-09
230.01413	2.34020E-09
230.18694	2.34198E-09
230.35975	2.34379E-09
230.53257	2.34562E-09
230.70538	2.34748E-09
230.87819	2.34937E-09
231.05101	2.35128E-09
231.22382	2.35321E-09
231.39663	2.35516E-09
231.56945	2.35714E-09
231.74226	2.35914E-09
231.91507	2.36115E-09
232.08789	2.36319E-09
232.26070	2.36524E-09
232.43351	2.36731E-09
232.60632	2.36938E-09
232.77914	2.37148E-09
232.95195	2.37360E-09
233.12476	2.37572E-09
233.29758	2.37786E-09
233.47039	2.38001E-09
233.64320	2.38217E-09
233.81602	2.38434E-09
233.98883	2.38653E-09
234.16164	2.38872E-09
234.33445	2.39091E-09
234.50727	2.39313E-09
234.68008	2.39534E-09
234.85289	2.39756E-09
235.02571	2.39979E-09
235.19852	2.40203E-09
235.37133	2.40426E-09
235.54415	2.40652E-09
235.71696	2.40877E-09
235.88977	2.41103E-09
236.06258	2.41330E-09
236.23540	2.41558E-09
236.40821	2.41786E-09
236.58102	2.42015E-09
236.75384	2.42245E-09
236.92665	2.42475E-09
237.09946	2.42707E-09
237.27228	2.42939E-09
237.44509	2.43172E-09
237.61790	2.43407E-09
237.79071	2.43641E-09
237.96353	2.43877E-09
238.13634	2.44115E-09
238.30915	2.44353E-09
238.48197	2.44592E-09
238.65478	2.44832E-09
238.82759	2.45074E-09
239.00041	2.45316E-09
239.17322	2.45561E-09
239.34603	2.45807E-09
239.51884	2.46054E-09
239.69166	2.46302E-09
239.86447	2.46552E-09
240.03728	2.46803E-09
240.21010	2.47056E-09
240.38291	2.47311E-09
240.55572	2.47567E-09
240.72854	2.47825E-09
240.90135	2.48085E-09
241.07416	2.48346E-09
241.24698	2.48609E-09
241.41979	2.48874E-09
241.59260	2.49139E-09
241.76541	2.49407E-09
241.93823	2.49676E-09
242.11104	2.49947E-09
242.28385	2.50219E-09
242.45667	2.50492E-09
242.62948	2.50767E-09
242.80229	2.51043E-09
242.97511	2.51320E-09
243.14792	2.51598E-09
243.32073	2.51877E-09
243.49354	2.52157E-09
243.66636	2.52438E-09
243.83917	2.52720E-09
244.01198	2.53002E-09
244.18480	2.53286E-09
244.35761	2.53569E-09
244.53042	2.53853E-09
244.70324	2.54138E-09
244.87605	2.54422E-09
245.04886	2.54707E-09
245.22167	2.54992E-09
245.39449	2.55275E-09
245.56730	2.55559E-09
245.74011	2.55842E-09
245.91293	2.56124E-09
246.08574	2.56406E-09
246.25855	2.56686E-09
246.43137	2.56966E-09
246.60418	2.57244E-09
246.77699	2.57521E-09
246.94980	2.57797E-09
247.12262	2.58071E-09
247.29543	2.58343E-09
247.46824	2.58614E-09
247.64106	2.58883E-09
247.81387	2.59150E-09
247.98668	2.59416E-09
248.15950	2.59678E-09
248.33231	2.59940E-09
248.50512	2.60198E-09
248.67794	2.60455E-09
248.85075	2.60709E-09
249.02356	2.60962E-09
249.19637	2.61213E-09
249.36919	2.61461E-09
249.54200	2.61707E-09
249.71481	2.61952E-09
249.88763	2.62194E-09
250.06044	2.62435E-09
250.23325	2.62673E-09
250.40607	2.62910E-09
250.57888	2.63145E-09
250.75169	2.63378E-09
250.92450	2.63610E-09
251.09732	2.63842E-09
251.27013	2.64071E-09
251.44294	2.64300E-09
251.61576	2.64528E-09
251.78857	2.64756E-09
251.96138	2.64983E-09
252.13420	2.65210E-09
252.30701	2.65437E-09
252.47982	2.65664E-09
252.65263	2.65892E-09
252.82545	2.66121E-09
252.99826	2.66350E-09
253.17107	2.66580E-09
253.34389	2.66812E-09
253.51670	2.67046E-09
253.68951	2.67282E-09
253.86233	2.67519E-09
254.03514	2.67758E-09
254.20795	2.68001E-09
254.38076	2.68246E-09
254.55358	2.68494E-09
254.72639	2.68745E-09
254.89920	2.68999E-09
255.07202	2.69258E-09
255.24483	2.69520E-09
255.41764	2.69787E-09
255.59046	2.70058E-09
255.76327	2.70334E-09
255.93608	2.70614E-09
256.10889	2.70900E-09
256.28171	2.71191E-09
256.45452	2.71486E-09
256.62733	2.71787E-09
256.80015	2.72092E-09
256.97296	2.72404E-09
257.14577	2.72722E-09
257.31859	2.73045E-09
257.49140	2.73374E-09
257.66421	2.73708E-09
257.83703	2.74049E-09
258.00984	2.74396E-09
258.18265	2.74748E-09
258.35546	2.75106E-09
258.52828	2.75470E-09
258.70109	2.75840E-09
258.87390	2.76215E-09
259.04672	2.76596E-09
259.21953	2.76982E-09
259.39234	2.77375E-09
259.56516	2.77772E-09
259.73797	2.78175E-09
259.91078	2.78583E-09
260.08359	2.78995E-09
260.25641	2.79413E-09
260.42922	2.79835E-09
260.60203	2.80261E-09
260.77485	2.80692E-09
260.94766	2.81127E-09
261.12047	2.81565E-09
261.29329	2.82006E-09
261.46610	2.82451E-09
261.63891	2.82899E-09
261.81172	2.83349E-09
261.98454	2.83802E-09
262.15735	2.84257E-09
262.33016	2.84714E-09
262.50298	2.85172E-09
262.67579	2.85634E-09
262.84860	2.86096E-09
263.02142	2.86559E-09
263.19423	2.87022E-09
263.36704	2.87487E-09
263.53985	2.87951E-09
263.71267	2.88415E-09
263.88548	2.88880E-09
264.05829	2.89344E-09
264.23111	2.89807E-09
264.40392	2.90270E-09
264.57673	2.90732E-09
264.74955	2.91193E-09
264.92236	2.91653E-09
265.09517	2.92112E-09
265.26798	2.92569E-09
265.44080	2.93024E-09
265.61361	2.93477E-09
265.78642	2.93930E-09
265.95924	2.94379E-09
266.13205	2.94828E-09
266.30486	2.95274E-09
266.47768	2.95719E-09
266.65049	2.96162E-09
266.82330	2.96603E-09
266.99612	2.97042E-09
267.16893	2.97479E-09
267.34174	2.97915E-09
267.51455	2.98348E-09
267.68737	2.98780E-09
267.86018	2.99211E-09
268.03299	2.99641E-09
268.20581	3.00069E-09
268.37862	3.00497E-09
268.55143	3.00924E-09
268.72425	3.01350E-09
268.89706	3.01776E-09
269.06987	3.02202E-09
269.24268	3.02627E-09
269.41550	3.03053E-09
269.58831	3.03478E-09
269.76112	3.03905E-09
269.93394	3.04332E-09
270.10675	3.04760E-09
270.27956	3.05189E-09
270.45238	3.05620E-09
270.62519	3.06052E-09
270.79800	3.06486E-09
270.97081	3.06922E-09
271.14363	3.07359E-09
271.31644	3.07800E-09
271.48925	3.08243E-09
271.66207	3.08688E-09
271.83488	3.09136E-09
272.00769	3.09587E-09
272.18051	3.10041E-09
272.35332	3.10498E-09
272.52613	3.10958E-09
272.69894	3.11422E-09
272.87176	3.11889E-09
273.04457	3.12360E-09
273.21738	3.12834E-09
273.39020	3.13312E-09
273.56301	3.13794E-09
273.73582	3.14279E-09
273.90864	3.14767E-09
274.08145	3.15259E-09
274.25426	3.15754E-09
274.42707	3.16252E-09
274.59989	3.16754E-09
274.77270	3.17258E-09
274.94551	3.17765E-09
275.11833	3.18275E-09
275.29114	3.18789E-09
275.46395	3.19304E-09
275.63677	3.19821E-09
275.80958	3.20340E-09
275.98239	3.20861E-09
276.15521	3.21384E-09
276.32802	3.21908E-09
276.50083	3.22432E-09
276.67364	3.22957E-09
276.84646	3.23483E-09
277.01927	3.24009E-09
277.19208	3.24534E-09
277.36490	3.25059E-09
277.53771	3.25583E-09
277.71052	3.26106E-09
277.88334	3.26626E-09
278.05615	3.27145E-09
278.22896	3.27663E-09
278.40177	3.28177E-09
278.57459	3.28689E-09
278.74740	3.29197E-09
278.92021	3.29702E-09
279.09303	3.30203E-09
279.26584	3.30701E-09
279.43865	3.31194E-09
279.61147	3.31682E-09
279.78428	3.32164E-09
279.95709	3.32643E-09
280.12990	3.33115E-09
280.30272	3.33583E-09
280.47553	3.34045E-09
280.64834	3.34501E-09
280.82116	3.34951E-09
280.99397	3.35396E-09
281.16678	3.35834E-09
281.33960	3.36266E-09
281.51241	3.36691E-09
281.68522	3.37110E-09
281.85803	3.37523E-09
282.03085	3.37929E-09
282.20366	3.38329E-09
282.37647	3.38722E-09
282.54929	3.39110E-09
282.72210	3.39491E-09
282.89491	3.39867E-09
283.06773	3.40237E-09
283.24054	3.40601E-09
283.41335	3.40959E-09
283.58616	3.41312E-09
283.75898	3.41661E-09
283.93179	3.42005E-09
284.10460	3.42344E-09
284.27742	3.42679E-09
284.45023	3.43011E-09
284.62304	3.43338E-09
284.79586	3.43663E-09
284.96867	3.43984E-09
285.14148	3.44304E-09
285.31430	3.44621E-09
285.48711	3.44935E-09
285.65992	3.45248E-09
285.83273	3.45559E-09
286.00555	3.45869E-09
286.17836	3.46179E-09
286.35117	3.46489E-09
286.52399	3.46797E-09
286.69680	3.47108E-09
286.86961	3.47417E-09
287.04243	3.47729E-09
287.21524	3.48041E-09
287.38805	3.48355E-09
287.56086	3.48671E-09
287.73368	3.48989E-09
287.90649	3.49309E-09
288.07930	3.49632E-09
288.25212	3.49958E-09
288.42493	3.50286E-09
288.59774	3.50616E-09
288.77056	3.50951E-09
288.94337	3.51288E-09
289.11618	3.51629E-09
289.28899	3.51973E-09
289.46181	3.52320E-09
289.63462	3.52671E-09
289.80743	3.53024E-09
289.98025	3.53382E-09
290.15306	3.53743E-09
290.32587	3.54108E-09
290.49869	3.54475E-09
290.67150	3.54846E-09
290.84431	3.55220E-09
291.01712	3.55596E-09
291.18994	3.55974E-09
291.36275	3.56355E-09
291.53556	3.56739E-09
291.70838	3.57124E-09
291.88119	3.57510E-09
292.05400	3.57897E-09
292.22682	3.58286E-09
292.39963	3.58676E-09
292.57244	3.59066E-09
292.74525	3.59456E-09
292.91807	3.59847E-09
293.09088	3.60236E-09
293.26369	3.60625E-09
293.43651	3.61012E-09
293.60932	3.61398E-09
293.78213	3.61782E-09
293.95495	3.62164E-09
294.12776	3.62543E-09
294.30057	3.62919E-09
294.47339	3.63291E-09
294.64620	3.63660E-09
294.81901	3.64024E-09
294.99182	3.64385E-09
295.16464	3.64741E-09
295.33745	3.65092E-09
295.51026	3.65437E-09
295.68308	3.65777E-09
295.85589	3.66112E-09
296.02870	3.66440E-09
296.20152	3.66762E-09
296.37433	3.67078E-09
296.54714	3.67388E-09
296.71995	3.67691E-09
296.89277	3.67987E-09
297.06558	3.68276E-09
297.23839	3.68559E-09
297.41121	3.68835E-09
297.58402	3.69104E-09
297.75683	3.69366E-09
297.92965	3.69621E-09
298.10246	3.69869E-09
298.27527	3.70111E-09
298.44808	3.70347E-09
298.62090	3.70576E-09
298.79371	3.70800E-09
298.96652	3.71016E-09
299.13934	3.71228E-09
299.31215	3.71434E-09
299.48496	3.71634E-09
299.65778	3.71829E-09
299.83059	3.72020E-09
300.00340	3.72207E-09
300.17621	3.72389E-09
300.34903	3.72566E-09
300.52184	3.72741E-09
300.69465	3.72913E-09
300.86747	3.73081E-09
301.04028	3.73246E-09
301.21309	3.73411E-09
301.38591	3.73573E-09
301.55872	3.73734E-09
301.73153	3.73894E-09
301.90434	3.74054E-09
302.07716	3.74213E-09
302.24997	3.74373E-09
302.42278	3.74533E-09
302.59560	3.74693E-09
302.76841	3.74855E-09
302.94122	3.75017E-09
303.11404	3.75182E-09
303.28685	3.75348E-09
303.45966	3.75517E-09
303.63248	3.75688E-09
303.80529	3.75862E-09
303.97810	3.76038E-09
304.15091	3.76218E-09
304.32373	3.76401E-09
304.49654	3.76587E-09
304.66935	3.76777E-09
304.84217	3.76969E-09
305.01498	3.77166E-09
305.18779	3.77366E-09
305.36061	3.77571E-09
305.53342	3.77779E-09
305.70623	3.77990E-09
305.87904	3.78205E-09
306.05186	3.78423E-09
306.22467	3.78646E-09
306.39748	3.78871E-09
306.57030	3.79100E-09
306.74311	3.79332E-09
306.91592	3.79566E-09
307.08874	3.79803E-09
307.26155	3.80042E-09
307.43436	3.80284E-09
307.60717	3.80528E-09
307.77999	3.80773E-09
307.95280	3.81020E-09
308.12561	3.81268E-09
308.29843	3.81517E-09
308.47124	3.81766E-09
308.64405	3.82016E-09
308.81687	3.82265E-09
308.98968	3.82516E-09
309.16249	3.82765E-09
309.33530	3.83013E-09
309.50812	3.83260E-09
309.68093	3.83505E-09
309.85374	3.83750E-09
310.02656	3.83992E-09
310.19937	3.84232E-09
310.37218	3.84468E-09
310.54500	3.84702E-09
310.71781	3.84933E-09
310.89062	3.85160E-09
311.06343	3.85384E-09
311.23625	3.85604E-09
311.40906	3.85821E-09
311.58187	3.86034E-09
311.75469	3.86243E-09
311.92750	3.86447E-09
312.10031	3.86647E-09
312.27313	3.86843E-09
312.44594	3.87034E-09
312.61875	3.87221E-09
312.79157	3.87403E-09
312.96438	3.87581E-09
313.13719	3.87756E-09
313.31000	3.87927E-09
313.48282	3.88093E-09
313.65563	3.88256E-09
313.82844	3.88415E-09
314.00126	3.88571E-09
314.17407	3.88723E-09
314.34688	3.88872E-09
314.51970	3.89018E-09
314.69251	3.89162E-09
314.86532	3.89304E-09
315.03813	3.89444E-09
315.21095	3.89583E-09
315.38376	3.89721E-09
315.55657	3.89857E-09
315.72939	3.89994E-09
315.90220	3.90130E-09
316.07501	3.90266E-09
316.24783	3.90404E-09
316.42064	3.90543E-09
316.59345	3.90683E-09
316.76626	3.90825E-09
316.93908	3.90968E-09
317.11189	3.91115E-09
317.28470	3.91265E-09
317.45752	3.91417E-09
317.63033	3.91575E-09
317.80314	3.91736E-09
317.97596	3.91902E-09
318.14877	3.92073E-09
318.32158	3.92248E-09
318.49439	3.92429E-09
318.66721	3.92615E-09
318.84002	3.92806E-09
319.01283	3.93004E-09
319.18565	3.93208E-09
319.35846	3.93418E-09
319.53127	3.93635E-09
319.70409	3.93858E-09
319.87690	3.94088E-09
320.04971	3.94324E-09
320.22252	3.94567E-09
320.39534	3.94817E-09
320.56815	3.95075E-09
320.74096	3.95339E-09
320.91378	3.95609E-09
321.08659	3.95885E-09
321.25940	3.96168E-09
321.43222	3.96458E-09
321.60503	3.96753E-09
321.77784	3.97055E-09
321.95066	3.97362E-09
322.12347	3.97675E-09
322.29628	3.97993E-09
322.46909	3.98315E-09
322.64191	3.98642E-09
322.81472	3.98973E-09
322.98753	3.99309E-09
323.16035	3.99649E-09
323.33316	3.99991E-09
323.50597	4.00337E-09
323.67879	4.00684E-09
323.85160	4.01035E-09
324.02441	4.01386E-09
324.19722	4.01739E-09
324.37004	4.02092E-09
324.54285	4.02446E-09
324.71566	4.02799E-09
324.88848	4.03153E-09
325.06129	4.03506E-09
325.23410	4.03857E-09
325.40692	4.04207E-09
325.57973	4.04554E-09
325.75254	4.04900E-09
325.92535	4.05243E-09
326.09817	4.05583E-09
326.27098	4.05920E-09
326.44379	4.06253E-09
326.61661	4.06582E-09
326.78942	4.06907E-09
326.96223	4.07229E-09
327.13505	4.07547E-09
327.30786	4.07861E-09
327.48067	4.08169E-09
327.65348	4.08472E-09
327.82630	4.08771E-09
327.99911	4.09066E-09
328.17192	4.09357E-09
328.34474	4.09644E-09
328.51755	4.09926E-09
328.69036	4.10204E-09
328.86318	4.10479E-09
329.03599	4.10750E-09
329.20880	4.11017E-09
329.38161	4.11281E-09
329.55443	4.11542E-09
329.72724	4.11801E-09
329.90005	4.12059E-09
330.07287	4.12314E-09
330.24568	4.12568E-09
330.41849	4.12820E-09
330.59131	4.13072E-09
330.76412	4.13324E-09
330.93693	4.13577E-09
331.10975	4.13830E-09
331.28256	4.14085E-09
331.45537	4.14342E-09
331.62818	4.14602E-09
331.80100	4.14865E-09
331.97381	4.15131E-09
332.14662	4.15402E-09
332.31944	4.15677E-09
332.49225	4.15958E-09
332.66506	4.16245E-09
332.83788	4.16538E-09
333.01069	4.16838E-09
333.18350	4.17145E-09
333.35631	4.17458E-09
333.52913	4.17781E-09
333.70194	4.18113E-09
333.87475	4.18454E-09
334.04757	4.18805E-09
334.22038	4.19164E-09
334.39319	4.19535E-09
334.56601	4.19916E-09
334.73882	4.20307E-09
334.91163	4.20709E-09
335.08444	4.21121E-09
335.25726	4.21545E-09
335.43007	4.21980E-09
335.60288	4.22427E-09
335.77570	4.22885E-09
335.94851	4.23355E-09
336.12132	4.23836E-09
336.29414	4.24328E-09
336.46695	4.24832E-09
336.63976	4.25347E-09
336.81257	4.25873E-09
336.98539	4.26409E-09
337.15820	4.26955E-09
337.33101	4.27511E-09
337.50383	4.28077E-09
337.67664	4.28652E-09
337.84945	4.29235E-09
338.02227	4.29828E-09
338.19508	4.30428E-09
338.36789	4.31037E-09
338.54070	4.31652E-09
338.71352	4.32273E-09
338.88633	4.32901E-09
339.05914	4.33533E-09
339.23196	4.34170E-09
339.40477	4.34811E-09
339.57758	4.35455E-09
339.75040	4.36103E-09
339.92321	4.36753E-09
340.09602	4.37403E-09
340.26884	4.38055E-09
340.44165	4.38707E-09
340.61446	4.39359E-09
340.78727	4.40011E-09
340.96009	4.40660E-09
341.13290	4.41308E-09
341.30571	4.41953E-09
341.47853	4.42596E-09
341.65134	4.43235E-09
341.82415	4.43870E-09
341.99697	4.44500E-09
342.16978	4.45127E-09
342.34259	4.45747E-09
342.51540	4.46362E-09
342.68822	4.46972E-09
342.86103	4.47575E-09
343.03384	4.48174E-09
343.20666	4.48766E-09
343.37947	4.49352E-09
343.55228	4.49932E-09
343.72510	4.50507E-09
343.89791	4.51075E-09
344.07072	4.51638E-09
344.24353	4.52196E-09
344.41635	4.52748E-09
344.58916	4.53296E-09
344.76197	4.53839E-09
344.93479	4.54379E-09
345.10760	4.54916E-09
345.28041	4.55450E-09
345.45323	4.55982E-09
345.62604	4.56512E-09
345.79885	4.57042E-09
345.97166	4.57571E-09
346.14448	4.58100E-09
346.31729	4.58632E-09
346.49010	4.59165E-09
346.66292	4.59703E-09
346.83573	4.60243E-09
347.00854	4.60790E-09
347.18136	4.61341E-09
347.35417	4.61899E-09
347.52698	4.62465E-09
347.69979	4.63039E-09
347.87261	4.63624E-09
348.04542	4.64219E-09
348.21823	4.64824E-09
348.39105	4.65443E-09
348.56386	4.66074E-09
348.73667	4.66718E-09
348.90949	4.67378E-09
349.08230	4.68053E-09
349.25511	4.68746E-09
349.42793	4.69454E-09
349.60074	4.70181E-09
349.77355	4.70925E-09
349.94636	4.71687E-09
350.11918	4.72470E-09
350.29199	4.73273E-09
350.46480	4.74097E-09
350.63762	4.74940E-09
350.81043	4.75804E-09
350.98324	4.76688E-09
351.15606	4.77595E-09
351.32887	4.78522E-09
351.50168	4.79472E-09
351.67449	4.80441E-09
351.84731	4.81433E-09
352.02012	4.82444E-09
352.19293	4.83477E-09
352.36575	4.84530E-09
352.53856	4.85602E-09
352.71137	4.86694E-09
352.88419	4.87805E-09
353.05700	4.88933E-09
353.22981	4.90079E-09
353.40262	4.91242E-09
353.57544	4.92421E-09
353.74825	4.93614E-09
353.92106	4.94821E-09
354.09388	4.96040E-09
354.26669	4.97271E-09
354.43950	4.98513E-09
354.61232	4.99763E-09
354.78513	5.01020E-09
354.95794	5.02284E-09
355.13075	5.03553E-09
355.30357	5.04827E-09
355.47638	5.06103E-09
355.64919	5.07380E-09
355.82201	5.08657E-09
355.99482	5.09931E-09
356.16763	5.11204E-09
356.34045	5.12472E-09
356.51326	5.13733E-09
356.68607	5.14989E-09
356.85888	5.16236E-09
357.03170	5.17472E-09
357.20451	5.18699E-09
357.37732	5.19913E-09
357.55014	5.21116E-09
357.72295	5.22305E-09
357.89576	5.23479E-09
358.06858	5.24638E-09
358.24139	5.25782E-09
358.41420	5.26910E-09
358.58702	5.28021E-09
358.75983	5.29115E-09
358.93264	5.30192E-09
359.10545	5.31252E-09
359.27827	5.32296E-09
359.45108	5.33325E-09
359.62389	5.34336E-09
359.79671	5.35333E-09
359.96952	5.36315E-09
360.14233	5.37283E-09
360.31515	5.38239E-09
360.48796	5.39184E-09
360.66077	5.40118E-09
360.83358	5.41044E-09
361.00640	5.41964E-09
361.17921	5.42877E-09
361.35202	5.43788E-09
361.52484	5.44698E-09
361.69765	5.45608E-09
361.87046	5.46523E-09
362.04328	5.47443E-09
362.21609	5.48373E-09
362.38890	5.49312E-09
362.56171	5.50264E-09
362.73453	5.51233E-09
362.90734	5.52221E-09
363.08015	5.53231E-09
363.25297	5.54268E-09
363.42578	5.55333E-09
363.59859	5.56428E-09
363.77141	5.57558E-09
363.94422	5.58726E-09
364.11703	5.59935E-09
364.28984	5.61188E-09
364.46266	5.62488E-09
364.63547	5.63838E-09
364.80828	5.65241E-09
364.98110	5.66700E-09
365.15391	5.68219E-09
365.32672	5.69800E-09
365.49954	5.71447E-09
365.67235	5.73161E-09
365.84516	5.74945E-09
366.01797	5.76805E-09
366.19079	5.78741E-09
366.36360	5.80754E-09
366.53641	5.82848E-09
366.70923	5.85025E-09
366.88204	5.87288E-09
367.05485	5.89639E-09
367.22767	5.92081E-09
367.40048	5.94612E-09
367.57329	5.97234E-09
367.74611	5.99952E-09
367.91892	6.02764E-09
368.09173	6.05674E-09
368.26454	6.08679E-09
368.43736	6.11782E-09
368.61017	6.14982E-09
368.78298	6.18278E-09
368.95580	6.21673E-09
369.12861	6.25165E-09
369.30142	6.28749E-09
369.47424	6.32429E-09
369.64705	6.36201E-09
369.81986	6.40064E-09
369.99267	6.44015E-09
370.16549	6.48049E-09
370.33830	6.52165E-09
370.51111	6.56360E-09
370.68393	6.60629E-09
370.85674	6.64967E-09
371.02955	6.69367E-09
371.20237	6.73827E-09
371.37518	6.78340E-09
371.54799	6.82898E-09
371.72080	6.87496E-09
371.89362	6.92123E-09
372.06643	6.96775E-09
372.23924	7.01440E-09
372.41206	7.06111E-09
372.58487	7.10777E-09
372.75768	7.15427E-09
372.93050	7.20050E-09
373.10331	7.24639E-09
373.27612	7.29179E-09
373.44893	7.33658E-09
373.62175	7.38066E-09
373.79456	7.42388E-09
373.96737	7.46614E-09
374.14019	7.50731E-09
374.31300	7.54724E-09
374.48581	7.58580E-09
374.65863	7.62291E-09
374.83144	7.65839E-09
375.00425	7.69215E-09
375.17706	7.72408E-09
375.34988	7.75403E-09
375.52269	7.78193E-09
375.69550	7.80762E-09
375.86832	7.83106E-09
376.04113	7.85215E-09
376.21394	7.87077E-09
376.38676	7.88690E-09
376.55957	7.90047E-09
376.73238	7.91138E-09
376.90520	7.91966E-09
377.07801	7.92526E-09
377.25082	7.92814E-09
377.42363	7.92829E-09
377.59645	7.92578E-09
377.76926	7.92058E-09
377.94207	7.91273E-09
378.11489	7.90228E-09
378.28770	7.88930E-09
378.46051	7.87380E-09
378.63333	7.85593E-09
378.80614	7.83571E-09
378.97895	7.81326E-09
379.15176	7.78866E-09
379.32458	7.76206E-09
379.49739	7.73353E-09
379.67020	7.70321E-09
379.84302	7.67123E-09
380.01583	7.63768E-09
380.18864	7.60273E-09
380.36146	7.56650E-09
380.53427	7.52912E-09
380.70708	7.49070E-09
380.87989	7.45137E-09
381.05271	7.41129E-09
381.22552	7.37057E-09
381.39833	7.32934E-09
381.57115	7.28770E-09
381.74396	7.24582E-09
381.91677	7.20375E-09
382.08959	7.16164E-09
382.26240	7.11956E-09
382.43521	7.07764E-09
382.60802	7.03595E-09
382.78084	6.99463E-09
382.95365	6.95371E-09
383.12646	6.91331E-09
383.29928	6.87348E-09
383.47209	6.83429E-09
383.64490	6.79585E-09
383.81772	6.75815E-09
383.99053	6.72129E-09
384.16334	6.68532E-09
384.33616	6.65025E-09
384.50897	6.61617E-09
384.68178	6.58307E-09
384.85459	6.55104E-09
385.02741	6.52005E-09
385.20022	6.49016E-09
385.37303	6.46139E-09
385.54585	6.43373E-09
385.71866	6.40724E-09
385.89147	6.38190E-09
386.06429	6.35774E-09
386.23710	6.33476E-09
386.40991	6.31296E-09
386.58272	6.29233E-09
386.75554	6.27288E-09
386.92835	6.25459E-09
387.10116	6.23748E-09
387.27398	6.22152E-09
387.44679	6.20672E-09
387.61960	6.19305E-09
387.79242	6.18049E-09
387.96523	6.16905E-09
388.13804	6.15869E-09
388.31085	6.14942E-09
388.48367	6.14119E-09
388.65648	6.13399E-09
388.82929	6.12778E-09
389.00211	6.12256E-09
389.17492	6.11830E-09
389.34773	6.11496E-09
389.52055	6.11250E-09
389.69336	6.11092E-09
389.86617	6.11018E-09
390.03898	6.11023E-09
390.21180	6.11106E-09
390.38461	6.11262E-09
390.55742	6.11487E-09
390.73024	6.11779E-09
390.90305	6.12135E-09
391.07586	6.12550E-09
391.24868	6.13020E-09
391.42149	6.13542E-09
391.59430	6.14112E-09
391.76711	6.14726E-09
391.93993	6.15379E-09
392.11274	6.16070E-09
392.28555	6.16793E-09
392.45837	6.17543E-09
392.63118	6.18319E-09
392.80399	6.19115E-09
392.97681	6.19928E-09
393.14962	6.20755E-09
393.32243	6.21591E-09
393.49525	6.22433E-09
393.66806	6.23276E-09
393.84087	6.24119E-09
394.01368	6.24957E-09
394.18650	6.25787E-09
394.35931	6.26605E-09
394.53212	6.27411E-09
394.70494	6.28200E-09
394.87775	6.28969E-09
395.05056	6.29716E-09
395.22338	6.30441E-09
395.39619	6.31139E-09
395.56900	6.31808E-09
395.74181	6.32448E-09
395.91463	6.33057E-09
396.08744	6.33632E-09
396.26025	6.34176E-09
396.43307	6.34685E-09
396.60588	6.35159E-09
396.77869	6.35596E-09
396.95151	6.35998E-09
397.12432	6.36365E-09
397.29713	6.36696E-09
397.46994	6.36992E-09
397.64276	6.37253E-09
397.81557	6.37480E-09
397.98838	6.37674E-09
398.16120	6.37837E-09
398.33401	6.37972E-09
398.50682	6.38074E-09
398.67964	6.38152E-09
398.85245	6.38202E-09
399.02526	6.38229E-09
399.19807	6.38234E-09
399.37089	6.38219E-09
399.54370	6.38186E-09
399.71651	6.38138E-09
399.88933	6.38078E-09
400.06214	6.38006E-09
400.23495	6.37927E-09
400.40777	6.37840E-09
400.58058	6.37750E-09
400.75339	6.37659E-09
400.92620	6.37568E-09
401.09902	6.37481E-09
401.27183	6.37401E-09
401.44464	6.37327E-09
401.61746	6.37265E-09
401.79027	6.37214E-09
401.96308	6.37178E-09
402.13590	6.37160E-09
402.30871	6.37160E-09
402.48152	6.37180E-09
402.65434	6.37221E-09
402.82715	6.37287E-09
402.99996	6.37380E-09
403.17277	6.37499E-09
403.34559	6.37648E-09
403.51840	6.37827E-09
403.69121	6.38038E-09
403.86403	6.38282E-09
404.03684	6.38559E-09
404.20965	6.38871E-09
404.38247	6.39217E-09
404.55528	6.39598E-09
404.72809	6.40016E-09
404.90090	6.40471E-09
405.07372	6.40963E-09
405.24653	6.41492E-09
405.41934	6.42058E-09
405.59216	6.42661E-09
405.76497	6.43302E-09
405.93778	6.43979E-09
406.11060	6.44693E-09
406.28341	6.45441E-09
406.45622	6.46225E-09
406.62903	6.47044E-09
406.80185	6.47895E-09
406.97466	6.48780E-09
407.14747	6.49696E-09
407.32029	6.50644E-09
407.49310	6.51621E-09
407.66591	6.52625E-09
407.83873	6.53658E-09
408.01154	6.54714E-09
408.18435	6.55796E-09
408.35716	6.56899E-09
408.52998	6.58024E-09
408.70279	6.59168E-09
408.87560	6.60331E-09
409.04842	6.61509E-09
409.22123	6.62703E-09
409.39404	6.63907E-09
409.56686	6.65124E-09
409.73967	6.66347E-09
409.91248	6.67579E-09
410.08529	6.68818E-09
410.25811	6.70060E-09
410.43092	6.71303E-09
410.60373	6.72547E-09
410.77655	6.73790E-09
410.94936	6.75030E-09
411.12217	6.76266E-09
411.29499	6.77497E-09
411.46780	6.78718E-09
411.64061	6.79931E-09
411.81343	6.81134E-09
411.98624	6.82325E-09
412.15905	6.83504E-09
412.33186	6.84666E-09
412.50468	6.85818E-09
412.67749	6.86951E-09
412.85030	6.88069E-09
413.02312	6.89168E-09
413.19593	6.90250E-09
413.36874	6.91314E-09
413.54156	6.92357E-09
413.71437	6.93381E-09
413.88718	6.94386E-09
414.05999	6.95369E-09
414.23281	6.96334E-09
414.40562	6.97279E-09
414.57843	6.98203E-09
414.75125	6.99109E-09
414.92406	6.99997E-09
415.09687	7.00866E-09
415.26969	7.01717E-09
415.44250	7.02549E-09
415.61531	7.03367E-09
415.78812	7.04169E-09
415.96094	7.04955E-09
416.13375	7.05731E-09
416.30656	7.06493E-09
416.47938	7.07245E-09
416.65219	7.07987E-09
416.82500	7.08720E-09
416.99782	7.09448E-09
417.17063	7.10168E-09
417.34344	7.10887E-09
417.51625	7.11602E-09
417.68907	7.12315E-09
417.86188	7.13029E-09
418.03469	7.13746E-09
418.20751	7.14467E-09
418.38032	7.15198E-09
418.55313	7.15935E-09
418.72595	7.16679E-09
418.89876	7.17436E-09
419.07157	7.18208E-09
419.24438	7.18992E-09
419.41720	7.19796E-09
419.59001	7.20618E-09
419.76282	7.21459E-09
419.93564	7.22323E-09
420.10845	7.23211E-09
420.28126	7.24124E-09
420.45408	7.25063E-09
420.62689	7.26033E-09
420.79970	7.27034E-09
420.97252	7.28067E-09
421.14533	7.29132E-09
421.31814	7.30233E-09
421.49095	7.31372E-09
421.66377	7.32548E-09
421.83658	7.33764E-09
422.00939	7.35019E-09
422.18221	7.36318E-09
422.35502	7.37659E-09
422.52783	7.39046E-09
422.70065	7.40476E-09
422.87346	7.41956E-09
423.04627	7.43482E-09
423.21908	7.45053E-09
423.39190	7.46677E-09
423.56471	7.48351E-09
423.73752	7.50072E-09
423.91034	7.51850E-09
424.08315	7.53676E-09
424.25596	7.55554E-09
424.42878	7.57485E-09
424.60159	7.59468E-09
424.77440	7.61508E-09
424.94721	7.63595E-09
425.12003	7.65738E-09
425.29284	7.67933E-09
425.46565	7.70181E-09
425.63847	7.72478E-09
425.81128	7.74827E-09
425.98409	7.77227E-09
426.15691	7.79676E-09
426.32972	7.82175E-09
426.50253	7.84719E-09
426.67534	7.87307E-09
426.84816	7.89943E-09
427.02097	7.92622E-09
427.19378	7.95340E-09
427.36660	7.98100E-09
427.53941	8.00896E-09
427.71222	8.03726E-09
427.88504	8.06592E-09
428.05785	8.09484E-09
428.23066	8.12405E-09
428.40347	8.15348E-09
428.57629	8.18313E-09
428.74910	8.21294E-09
428.92191	8.24289E-09
429.09473	8.27293E-09
429.26754	8.30303E-09
429.44035	8.33311E-09
429.61317	8.36319E-09
429.78598	8.39317E-09
429.95879	8.42302E-09
430.13161	8.45269E-09
430.30442	8.48215E-09
430.47723	8.51128E-09
430.65004	8.54006E-09
430.82286	8.56845E-09
430.99567	8.59637E-09
431.16848	8.62375E-09
431.34130	8.65054E-09
431.51411	8.67667E-09
431.68692	8.70208E-09
431.85974	8.72671E-09
432.03255	8.75048E-09
432.20536	8.77332E-09
432.37817	8.79520E-09
432.55099	8.81602E-09
432.72380	8.83572E-09
432.89661	8.85424E-09
433.06943	8.87151E-09
433.24224	8.88748E-09
433.41505	8.90206E-09
433.58787	8.91523E-09
433.76068	8.92693E-09
433.93349	8.93709E-09
434.10630	8.94567E-09
434.27912	8.95267E-09
434.45193	8.95795E-09
434.62474	8.96157E-09
434.79756	8.96345E-09
434.97037	8.96355E-09
435.14318	8.96190E-09
435.31600	8.95845E-09
435.48881	8.95319E-09
435.66162	8.94613E-09
435.83443	8.93724E-09
436.00725	8.92658E-09
436.18006	8.91412E-09
436.35287	8.89989E-09
436.52569	8.88391E-09
436.69850	8.86622E-09
436.87131	8.84685E-09
437.04413	8.82585E-09
437.21694	8.80328E-09
437.38975	8.77917E-09
437.56256	8.75356E-09
437.73538	8.72655E-09
437.90819	8.69817E-09
438.08100	8.66851E-09
438.25382	8.63766E-09
438.42663	8.60565E-09
438.59944	8.57259E-09
438.77226	8.53859E-09
438.94507	8.50368E-09
439.11788	8.46798E-09
439.29070	8.43155E-09
439.46351	8.39447E-09
439.63632	8.35687E-09
439.80913	8.31882E-09
439.98195	8.28040E-09
440.15476	8.24168E-09
440.32757	8.20279E-09
440.50039	8.16377E-09
440.67320	8.12475E-09
440.84601	8.08575E-09
441.01883	8.04690E-09
441.19164	8.00824E-09
441.36445	7.96987E-09
441.53726	7.93186E-09
441.71008	7.89428E-09
441.88289	7.85721E-09
442.05570	7.82069E-09
442.22852	7.78479E-09
442.40133	7.74959E-09
442.57414	7.71513E-09
442.74696	7.68146E-09
442.91977	7.64863E-09
443.09258	7.61672E-09
443.26539	7.58575E-09
443.43821	7.55575E-09
443.61102	7.52680E-09
443.78383	7.49891E-09
443.95665	7.47213E-09
444.12946	7.44649E-09
444.30227	7.42202E-09
444.47509	7.39875E-09
444.64790	7.37671E-09
444.82071	7.35592E-09
444.99352	7.33640E-09
445.16634	7.31820E-09
445.33915	7.30129E-09
445.51196	7.28572E-09
445.68478	7.27148E-09
445.85759	7.25861E-09
446.03040	7.24710E-09
446.20322	7.23698E-09
446.37603	7.22824E-09
446.54884	7.22088E-09
446.72165	7.21491E-09
446.89447	7.21034E-09
447.06728	7.20716E-09
447.24009	7.20538E-09
447.41291	7.20498E-09
447.58572	7.20597E-09
447.75853	7.20834E-09
447.93135	7.21208E-09
448.10416	7.21719E-09
448.27697	7.22367E-09
448.44979	7.23146E-09
448.62260	7.24059E-09
448.79541	7.25101E-09
448.96822	7.26272E-09
449.14104	7.27571E-09
449.31385	7.28995E-09
449.48666	7.30540E-09
449.65948	7.32204E-09
449.83229	7.33987E-09
450.00510	7.35882E-09
450.17792	7.37887E-09
450.35073	7.39997E-09
450.52354	7.42211E-09
450.69635	7.44526E-09
450.86917	7.46934E-09
451.04198	7.49431E-09
451.21479	7.52018E-09
451.38761	7.54685E-09
451.56042	7.57428E-09
451.73323	7.60240E-09
451.90605	7.63119E-09
452.07886	7.66059E-09
452.25167	7.69051E-09
452.42448	7.72092E-09
452.59730	7.75172E-09
452.77011	7.78286E-09
452.94292	7.81429E-09
453.11574	7.84596E-09
453.28855	7.87777E-09
453.46136	7.90964E-09
453.63418	7.94153E-09
453.80699	7.97335E-09
453.97980	8.00503E-09
454.15261	8.03651E-09
454.32543	8.06770E-09
454.49824	8.09855E-09
454.67105	8.12898E-09
454.84387	8.15892E-09
455.01668	8.18828E-09
455.18949	8.21704E-09
455.36231	8.24510E-09
455.53512	8.27240E-09
455.70793	8.29892E-09
455.88074	8.32456E-09
456.05356	8.34929E-09
456.22637	8.37307E-09
456.39918	8.39583E-09
456.57200	8.41754E-09
456.74481	8.43817E-09
456.91762	8.45766E-09
457.09044	8.47603E-09
457.26325	8.49323E-09
457.43606	8.50924E-09
457.60888	8.52406E-09
457.78169	8.53768E-09
457.95450	8.55009E-09
458.12731	8.56133E-09
458.30013	8.57138E-09
458.47294	8.58025E-09
458.64575	8.58797E-09
458.81857	8.59456E-09
458.99138	8.60006E-09
459.16419	8.60448E-09
459.33701	8.60785E-09
459.50982	8.61025E-09
459.68263	8.61170E-09
459.85544	8.61226E-09
460.02826	8.61196E-09
460.20107	8.61087E-09
460.37388	8.60902E-09
460.54670	8.60649E-09
460.71951	8.60335E-09
460.89232	8.59962E-09
461.06514	8.59542E-09
461.23795	8.59072E-09
461.41076	8.58565E-09
461.58357	8.58026E-09
461.75639	8.57463E-09
461.92920	8.56877E-09
462.10201	8.56277E-09
462.27483	8.55672E-09
462.44764	8.55063E-09
462.62045	8.54457E-09
462.79327	8.53863E-09
462.96608	8.53282E-09
463.13889	8.52721E-09
463.31170	8.52187E-09
463.48452	8.51681E-09
463.65733	8.51209E-09
463.83014	8.50779E-09
464.00296	8.50390E-09
464.17577	8.50053E-09
464.34858	8.49763E-09
464.52140	8.49529E-09
464.69421	8.49355E-09
464.86702	8.49241E-09
465.03983	8.49190E-09
465.21265	8.49208E-09
465.38546	8.49291E-09
465.55827	8.49446E-09
465.73109	8.49672E-09
465.90390	8.49974E-09
466.07671	8.50349E-09
466.24953	8.50801E-09
466.42234	8.51329E-09
466.59515	8.51934E-09
466.76797	8.52616E-09
466.94078	8.53376E-09
467.11359	8.54213E-09
467.28640	8.55126E-09
467.45922	8.56116E-09
467.63203	8.57178E-09
467.80484	8.58316E-09
467.97766	8.59524E-09
468.15047	8.60806E-09
468.32328	8.62156E-09
468.49610	8.63570E-09
468.66891	8.65053E-09
468.84172	8.66596E-09
469.01453	8.68200E-09
469.18735	8.69864E-09
469.36016	8.71583E-09
469.53297	8.73352E-09
469.70579	8.75174E-09
469.87860	8.77040E-09
470.05141	8.78951E-09
470.22423	8.80902E-09
470.39704	8.82888E-09
470.56985	8.84909E-09
470.74266	8.86961E-09
470.91548	8.89038E-09
471.08829	8.91140E-09
471.26110	8.93264E-09
471.43392	8.95401E-09
471.60673	8.97555E-09
471.77954	8.99718E-09
471.95236	9.01891E-09
472.12517	9.04068E-09
472.29798	9.06245E-09
472.47079	9.08423E-09
472.64361	9.10595E-09
472.81642	9.12761E-09
472.98923	9.14919E-09
473.16205	9.17064E-09
473.33486	9.19194E-09
473.50767	9.21314E-09
473.68049	9.23413E-09
473.85330	9.25494E-09
474.02611	9.27552E-09
474.19892	9.29591E-09
474.37174	9.31608E-09
474.54455	9.33605E-09
474.71736	9.35575E-09
474.89018	9.37524E-09
475.06299	9.39446E-09
475.23580	9.41346E-09
475.40862	9.43224E-09
475.58143	9.45076E-09
475.75424	9.46910E-09
475.92706	9.48722E-09
476.09987	9.50513E-09
476.27268	9.52287E-09
476.44549	9.54043E-09
476.61831	9.55783E-09
476.79112	9.57509E-09
476.96393	9.59225E-09
477.13675	9.60930E-09
477.30956	9.62625E-09
477.48237	9.64316E-09
477.65519	9.66002E-09
477.82800	9.67685E-09
478.00081	9.69369E-09
478.17362	9.71060E-09
478.34644	9.72753E-09
478.51925	9.74454E-09
478.69206	9.76166E-09
478.86488	9.77888E-09
479.03769	9.79626E-09
479.21050	9.81381E-09
479.38332	9.83155E-09
479.55613	9.84948E-09
479.72894	9.86765E-09
479.90175	9.88603E-09
480.07457	9.90469E-09
480.24738	9.92360E-09
480.42019	9.94281E-09
480.59301	9.96232E-09
480.76582	9.98213E-09
480.93863	1.00023E-08
481.11145	1.00227E-08
481.28426	1.00435E-08
481.45707	1.00646E-08
481.62988	1.00860E-08
481.80270	1.01078E-08
481.97551	1.01299E-08
482.14832	1.01523E-08
482.32114	1.01750E-08
482.49395	1.01981E-08
482.66676	1.02214E-08
482.83958	1.02450E-08
483.01239	1.02689E-08
483.18520	1.02931E-08
483.35801	1.03175E-08
483.53083	1.03420E-08
483.70364	1.03668E-08
483.87645	1.03918E-08
484.04927	1.04169E-08
484.22208	1.04422E-08
484.39489	1.04675E-08
484.56771	1.04929E-08
484.74052	1.05184E-08
484.91333	1.05439E-08
485.08615	1.05693E-08
485.25896	1.05947E-08
485.43177	1.06200E-08
485.60458	1.06452E-08
485.77740	1.06703E-08
485.95021	1.06951E-08
486.12302	1.07198E-08
486.29584	1.07443E-08
486.46865	1.07685E-08
486.64146	1.07924E-08
486.81428	1.08160E-08
486.98709	1.08392E-08
487.15990	1.08622E-08
487.33271	1.08847E-08
487.50553	1.09069E-08
487.67834	1.09286E-08
487.85115	1.09499E-08
488.02397	1.09708E-08
488.19678	1.09912E-08
488.36959	1.10112E-08
488.54241	1.10307E-08
488.71522	1.10498E-08
488.88803	1.10684E-08
489.06084	1.10867E-08
489.23366	1.11044E-08
489.40647	1.11218E-08
489.57928	1.11388E-08
489.75210	1.11554E-08
489.92491	1.11717E-08
490.09772	1.11877E-08
490.27054	1.12033E-08
490.44335	1.12187E-08
490.61616	1.12339E-08
490.78897	1.12489E-08
490.96179	1.12638E-08
491.13460	1.12785E-08
491.30741	1.12932E-08
491.48023	1.13079E-08
491.65304	1.13226E-08
491.82585	1.13375E-08
491.99867	1.13524E-08
492.17148	1.13676E-08
492.34429	1.13830E-08
492.51710	1.13987E-08
492.68992	1.14148E-08
492.86273	1.14312E-08
493.03554	1.14482E-08
493.20836	1.14656E-08
493.38117	1.14836E-08
493.55398	1.15023E-08
493.72680	1.15217E-08
493.89961	1.15417E-08
494.07242	1.15626E-08
494.24524	1.15842E-08
494.41805	1.16068E-08
494.59086	1.16303E-08
494.76367	1.16547E-08
494.93649	1.16801E-08
495.10930	1.17066E-08
495.28211	1.17342E-08
495.45493	1.17629E-08
495.62774	1.17927E-08
495.80055	1.18237E-08
495.97337	1.18558E-08
496.14618	1.18892E-08
496.31899	1.19238E-08
496.49180	1.19596E-08
496.66462	1.19967E-08
496.83743	1.20350E-08
497.01024	1.20745E-08
497.18306	1.21152E-08
497.35587	1.21572E-08
497.52868	1.22003E-08
497.70150	1.22446E-08
497.87431	1.22899E-08
498.04712	1.23364E-08
498.21993	1.23840E-08
498.39275	1.24325E-08
498.56556	1.24820E-08
498.73837	1.25324E-08
498.91119	1.25835E-08
499.08400	1.26355E-08
499.25681	1.26880E-08
499.42963	1.27411E-08
499.60244	1.27947E-08
499.77525	1.28487E-08
499.94806	1.29029E-08
500.12088	1.29573E-08
500.29369	1.30117E-08
500.46650	1.30660E-08
500.63932	1.31200E-08
500.81213	1.31738E-08
500.98494	1.32270E-08
501.15776	1.32795E-08
501.33057	1.33313E-08
501.50338	1.33821E-08
501.67619	1.34318E-08
501.84901	1.34802E-08
502.02182	1.35272E-08
502.19463	1.35727E-08
502.36745	1.36164E-08
502.54026	1.36582E-08
502.71307	1.36980E-08
502.88589	1.37357E-08
503.05870	1.37709E-08
503.23151	1.38038E-08
503.40433	1.38340E-08
503.57714	1.38616E-08
503.74995	1.38863E-08
503.92276	1.39081E-08
504.09558	1.39270E-08
504.26839	1.39426E-08
504.44120	1.39552E-08
504.61402	1.39645E-08
504.78683	1.39706E-08
504.95964	1.39734E-08
505.13246	1.39729E-08
505.30527	1.39690E-08
505.47808	1.39620E-08
505.65089	1.39516E-08
505.82371	1.39380E-08
505.99652	1.39213E-08
506.16933	1.39015E-08
506.34215	1.38786E-08
506.51496	1.38529E-08
506.68777	1.38243E-08
506.86059	1.37932E-08
507.03340	1.37594E-08
507.20621	1.37231E-08
507.37902	1.36846E-08
507.55184	1.36440E-08
507.72465	1.36013E-08
507.89746	1.35569E-08
508.07028	1.35108E-08
508.24309	1.34632E-08
508.41590	1.34143E-08
508.58872	1.33643E-08
508.76153	1.33133E-08
508.93434	1.32615E-08
509.10715	1.32090E-08
509.27997	1.31561E-08
509.45278	1.31030E-08
509.62559	1.30496E-08
509.79841	1.29963E-08
509.97122	1.29432E-08
510.14403	1.28903E-08
510.31685	1.28379E-08
510.48966	1.27862E-08
510.66247	1.27351E-08
510.83529	1.26849E-08
511.00810	1.26357E-08
511.18091	1.25876E-08
511.35372	1.25406E-08
511.52654	1.24949E-08
511.69935	1.24507E-08
511.87216	1.24079E-08
512.04498	1.23667E-08
512.21779	1.23271E-08
512.39060	1.22892E-08
512.56342	1.22531E-08
512.73623	1.22189E-08
512.90904	1.21864E-08
513.08185	1.21560E-08
513.25467	1.21274E-08
513.42748	1.21010E-08
513.60029	1.20765E-08
513.77311	1.20540E-08
513.94592	1.20337E-08
514.11873	1.20154E-08
514.29155	1.19993E-08
514.46436	1.19852E-08
514.63717	1.19733E-08
514.80998	1.19635E-08
514.98280	1.19558E-08
515.15561	1.19501E-08
515.32842	1.19466E-08
515.50124	1.19451E-08
515.67405	1.19456E-08
515.84686	1.19482E-08
516.01968	1.19527E-08
516.19249	1.19591E-08
516.36530	1.19675E-08
516.53811	1.19777E-08
516.71093	1.19897E-08
516.88374	1.20035E-08
517.05655	1.20189E-08
517.22937	1.20361E-08
517.40218	1.20548E-08
517.57499	1.20750E-08
517.74781	1.20968E-08
517.92062	1.21198E-08
518.09343	1.21442E-08
518.26624	1.21698E-08
518.43906	1.21966E-08
518.61187	1.22245E-08
518.78468	1.22533E-08
518.95750	1.22830E-08
519.13031	1.23135E-08
519.30312	1.23448E-08
519.47594	1.23767E-08
519.64875	1.24091E-08
519.82156	1.24419E-08
519.99438	1.24751E-08
520.16719	1.25084E-08
520.34000	1.25420E-08
520.51281	1.25755E-08
520.68563	1.26091E-08
520.85844	1.26424E-08
521.03125	1.26755E-08
521.20407	1.27082E-08
521.37688	1.27405E-08
521.54969	1.27723E-08
521.72251	1.28034E-08
521.89532	1.28338E-08
522.06813	1.28634E-08
522.24094	1.28921E-08
522.41376	1.29200E-08
522.58657	1.29467E-08
522.75938	1.29724E-08
522.93220	1.29970E-08
523.10501	1.30204E-08
523.27782	1.30425E-08
523.45064	1.30634E-08
523.62345	1.30829E-08
523.79626	1.31011E-08
523.96907	1.31179E-08
524.14189	1.31334E-08
524.31470	1.31474E-08
524.48751	1.31600E-08
524.66033	1.31712E-08
524.83314	1.31811E-08
525.00595	1.31896E-08
525.17877	1.31967E-08
525.35158	1.32025E-08
525.52439	1.32069E-08
525.69720	1.32101E-08
525.87002	1.32121E-08
526.04283	1.32129E-08
526.21564	1.32125E-08
526.38846	1.32111E-08
526.56127	1.32086E-08
526.73408	1.32052E-08
526.90690	1.32009E-08
527.07971	1.31957E-08
527.25252	1.31898E-08
527.42533	1.31831E-08
527.59815	1.31758E-08
527.77096	1.31678E-08
527.94377	1.31595E-08
528.11659	1.31506E-08
528.28940	1.31414E-08
528.46221	1.31318E-08
528.63503	1.31221E-08
528.80784	1.31121E-08
528.98065	1.31021E-08
529.15347	1.30920E-08
529.32628	1.30819E-08
529.49909	1.30718E-08
529.67190	1.30619E-08
529.84472	1.30521E-08
530.01753	1.30425E-08
530.19034	1.30332E-08
530.36316	1.30243E-08
530.53597	1.30156E-08
530.70878	1.30073E-08
530.88160	1.29995E-08
531.05441	1.29921E-08
531.22722	1.29852E-08
531.40003	1.29787E-08
531.57285	1.29728E-08
531.74566	1.29674E-08
531.91847	1.29625E-08
532.09129	1.29582E-08
532.26410	1.29544E-08
532.43691	1.29513E-08
532.60973	1.29486E-08
532.78254	1.29466E-08
532.95535	1.29451E-08
533.12816	1.29441E-08
533.30098	1.29436E-08
533.47379	1.29437E-08
533.64660	1.29443E-08
533.81942	1.29454E-08
533.99223	1.29469E-08
534.16504	1.29489E-08
534.33786	1.29513E-08
534.51067	1.29541E-08
534.68348	1.29573E-08
534.85629	1.29608E-08
535.02911	1.29647E-08
535.20192	1.29688E-08
535.37473	1.29732E-08
535.54755	1.29778E-08
535.72036	1.29826E-08
535.89317	1.29876E-08
536.06599	1.29927E-08
536.23880	1.29979E-08
536.41161	1.30032E-08
536.58442	1.30085E-08
536.75724	1.30139E-08
536.93005	1.30192E-08
537.10286	1.30244E-08
537.27568	1.30297E-08
537.44849	1.30348E-08
537.62130	1.30398E-08
537.79412	1.30446E-08
537.96693	1.30493E-08
538.13974	1.30538E-08
538.31256	1.30581E-08
538.48537	1.30622E-08
538.65818	1.30661E-08
538.83099	1.30698E-08
539.00381	1.30733E-08
539.17662	1.30765E-08
539.34943	1.30795E-08
539.52225	1.30822E-08
539.69506	1.30847E-08
539.86787	1.30870E-08
540.04069	1.30890E-08
540.21350	1.30908E-08
540.38631	1.30925E-08
540.55912	1.30939E-08
540.73194	1.30952E-08
540.90475	1.30963E-08
541.07756	1.30973E-08
541.25038	1.30982E-08
541.42319	1.30990E-08
541.59600	1.30997E-08
541.76882	1.31004E-08
541.94163	1.31011E-08
542.11444	1.31018E-08
542.28725	1.31025E-08
542.46007	1.31034E-08
542.63288	1.31043E-08
542.80569	1.31053E-08
542.97851	1.31065E-08
543.15132	1.31080E-08
543.32413	1.31096E-08
543.49695	1.31116E-08
543.66976	1.31138E-08
543.84257	1.31163E-08
544.01538	1.31192E-08
544.18820	1.31225E-08
544.36101	1.31261E-08
544.53382	1.31302E-08
544.70664	1.31348E-08
544.87945	1.31398E-08
545.05226	1.31454E-08
545.22508	1.31515E-08
545.39789	1.31581E-08
545.57070	1.31653E-08
545.74351	1.31730E-08
545.91633	1.31814E-08
546.08914	1.31903E-08
546.26195	1.31999E-08
546.43477	1.32101E-08
546.60758	1.32208E-08
546.78039	1.32323E-08
546.95321	1.32443E-08
547.12602	1.32570E-08
547.29883	1.32704E-08
547.47165	1.32844E-08
547.64446	1.32990E-08
547.81727	1.33142E-08
547.99008	1.33300E-08
548.16290	1.33463E-08
548.33571	1.33633E-08
548.50852	1.33809E-08
548.68134	1.33989E-08
548.85415	1.34175E-08
549.02696	1.34366E-08
549.19978	1.34562E-08
549.37259	1.34762E-08
549.54540	1.34967E-08
549.71821	1.35175E-08
549.89103	1.35388E-08
550.06384	1.35603E-08
550.23665	1.35822E-08
550.40947	1.36044E-08
550.58228	1.36268E-08
550.75509	1.36494E-08
550.92791	1.36723E-08
551.10072	1.36953E-08
551.27353	1.37183E-08
551.44634	1.37415E-08
551.61916	1.37648E-08
551.79197	1.37880E-08
551.96478	1.38113E-08
552.13760	1.38345E-08
552.31041	1.38576E-08
552.48322	1.38806E-08
552.65604	1.39035E-08
552.82885	1.39263E-08
553.00166	1.39489E-08
553.17447	1.39713E-08
553.34729	1.39935E-08
553.52010	1.40154E-08
553.69291	1.40371E-08
553.86573	1.40585E-08
554.03854	1.40797E-08
554.21135	1.41005E-08
554.38417	1.41210E-08
554.55698	1.41412E-08
554.72979	1.41611E-08
554.90260	1.41807E-08
555.07542	1.41999E-08
555.24823	1.42189E-08
555.42104	1.42376E-08
555.59386	1.42559E-08
555.76667	1.42740E-08
555.93948	1.42918E-08
556.11230	1.43093E-08
556.28511	1.43266E-08
556.45792	1.43437E-08
556.63074	1.43606E-08
556.80355	1.43772E-08
556.97636	1.43937E-08
557.14917	1.44101E-08
557.32199	1.44263E-08
557.49480	1.44425E-08
557.66761	1.44586E-08
557.84043	1.44746E-08
558.01324	1.44907E-08
558.18605	1.45067E-08
558.35887	1.45228E-08
558.53168	1.45391E-08
558.70449	1.45553E-08
558.87730	1.45718E-08
559.05012	1.45884E-08
559.22293	1.46052E-08
559.39574	1.46222E-08
559.56856	1.46395E-08
559.74137	1.46570E-08
559.91418	1.46748E-08
560.08700	1.46930E-08
560.25981	1.47115E-08
560.43262	1.47303E-08
560.60543	1.47496E-08
560.77825	1.47692E-08
560.95106	1.47891E-08
561.12387	1.48095E-08
561.29669	1.48303E-08
561.46950	1.48515E-08
561.64231	1.48731E-08
561.81513	1.48952E-08
561.98794	1.49176E-08
562.16075	1.49405E-08
562.33356	1.49639E-08
562.50638	1.49876E-08
562.67919	1.50117E-08
562.85200	1.50362E-08
563.02482	1.50611E-08
563.19763	1.50862E-08
563.37044	1.51117E-08
563.54326	1.51375E-08
563.71607	1.51635E-08
563.88888	1.51898E-08
564.06169	1.52163E-08
564.23451	1.52430E-08
564.40732	1.52699E-08
564.58013	1.52968E-08
564.75295	1.53238E-08
564.92576	1.53508E-08
565.09857	1.53778E-08
565.27139	1.54048E-08
565.44420	1.54317E-08
565.61701	1.54583E-08
565.78983	1.54849E-08
565.96264	1.55112E-08
566.13545	1.55373E-08
566.30826	1.55630E-08
566.48108	1.55884E-08
566.65389	1.56133E-08
566.82670	1.56379E-08
566.99952	1.56620E-08
567.17233	1.56856E-08
567.34514	1.57086E-08
567.51796	1.57311E-08
567.69077	1.57530E-08
567.86358	1.57742E-08
568.03639	1.57948E-08
568.20921	1.58146E-08
568.38202	1.58338E-08
568.55483	1.58522E-08
568.72765	1.58700E-08
568.90046	1.58870E-08
569.07327	1.59032E-08
569.24609	1.59187E-08
569.41890	1.59334E-08
569.59171	1.59474E-08
569.76452	1.59606E-08
569.93734	1.59732E-08
570.11015	1.59850E-08
570.28296	1.59961E-08
570.45578	1.60066E-08
570.62859	1.60165E-08
570.80140	1.60258E-08
570.97422	1.60345E-08
571.14703	1.60427E-08
571.31984	1.60504E-08
571.49265	1.60577E-08
571.66547	1.60646E-08
571.83828	1.60712E-08
572.01109	1.60774E-08
572.18391	1.60835E-08
572.35672	1.60894E-08
572.52953	1.60952E-08
572.70235	1.61010E-08
572.87516	1.61068E-08
573.04797	1.61126E-08
573.22078	1.61187E-08
573.39360	1.61249E-08
573.56641	1.61313E-08
573.73922	1.61381E-08
573.91204	1.61453E-08
574.08485	1.61529E-08
574.25766	1.61611E-08
574.43048	1.61698E-08
574.60329	1.61792E-08
574.77610	1.61892E-08
574.94892	1.62000E-08
575.12173	1.62116E-08
575.29454	1.62240E-08
575.46735	1.62373E-08
575.64017	1.62515E-08
575.81298	1.62667E-08
575.98579	1.62830E-08
576.15861	1.63003E-08
576.33142	1.63187E-08
576.50423	1.63383E-08
576.67705	1.63590E-08
576.84986	1.63808E-08
577.02267	1.64038E-08
577.19548	1.64280E-08
577.36830	1.64535E-08
577.54111	1.64802E-08
577.71392	1.65081E-08
577.88674	1.65371E-08
578.05955	1.65674E-08
578.23236	1.65990E-08
578.40518	1.66317E-08
578.57799	1.66656E-08
578.75080	1.67006E-08
578.92361	1.67367E-08
579.09643	1.67740E-08
579.26924	1.68123E-08
579.44205	1.68516E-08
579.61487	1.68919E-08
579.78768	1.69332E-08
579.96049	1.69753E-08
580.13331	1.70182E-08
580.30612	1.70619E-08
580.47893	1.71063E-08
580.65174	1.71513E-08
580.82456	1.71969E-08
580.99737	1.72430E-08
581.17018	1.72896E-08
581.34300	1.73365E-08
581.51581	1.73837E-08
581.68862	1.74311E-08
581.86144	1.74786E-08
582.03425	1.75262E-08
582.20706	1.75737E-08
582.37987	1.76211E-08
582.55269	1.76683E-08
582.72550	1.77153E-08
582.89831	1.77619E-08
583.07113	1.78081E-08
583.24394	1.78537E-08
583.41675	1.78989E-08
583.58957	1.79433E-08
583.76238	1.79870E-08
583.93519	1.80300E-08
584.10801	1.80722E-08
584.28082	1.81134E-08
584.45363	1.81537E-08
584.62644	1.81931E-08
584.79926	1.82314E-08
584.97207	1.82686E-08
585.14488	1.83048E-08
585.31770	1.83399E-08
585.49051	1.83738E-08
585.66332	1.84067E-08
585.83614	1.84383E-08
586.00895	1.84689E-08
586.18176	1.84983E-08
586.35457	1.85266E-08
586.52739	1.85538E-08
586.70020	1.85800E-08
586.87301	1.86052E-08
587.04583	1.86292E-08
587.21864	1.86525E-08
587.39145	1.86748E-08
587.56427	1.86962E-08
587.73708	1.87170E-08
587.90989	1.87370E-08
588.08270	1.87563E-08
588.25552	1.87751E-08
588.42833	1.87935E-08
588.60114	1.88114E-08
588.77396	1.88291E-08
588.94677	1.88466E-08
589.11958	1.88639E-08
589.29240	1.88812E-08
589.46521	1.88985E-08
589.63802	1.89160E-08
589.81083	1.89338E-08
589.98365	1.89519E-08
590.15646	1.89705E-08
590.32927	1.89896E-08
590.50209	1.90093E-08
590.67490	1.90297E-08
590.84771	1.90510E-08
591.02053	1.90732E-08
591.19334	1.90964E-08
591.36615	1.91206E-08
591.53896	1.91460E-08
591.71178	1.91726E-08
591.88459	1.92004E-08
592.05740	1.92297E-08
592.23022	1.92604E-08
592.40303	1.92925E-08
592.57584	1.93261E-08
592.74866	1.93614E-08
592.92147	1.93982E-08
593.09428	1.94367E-08
593.26710	1.94770E-08
593.43991	1.95189E-08
593.61272	1.95625E-08
593.78553	1.96078E-08
593.95835	1.96549E-08
594.13116	1.97038E-08
594.30397	1.97544E-08
594.47679	1.98066E-08
594.64960	1.98608E-08
594.82241	1.99165E-08
594.99523	1.99738E-08
595.16804	2.00327E-08
595.34085	2.00932E-08
595.51366	2.01552E-08
595.68648	2.02186E-08
595.85929	2.02834E-08
596.03210	2.03496E-08
596.20492	2.04169E-08
596.37773	2.04854E-08
596.55054	2.05548E-08
596.72336	2.06252E-08
596.89617	2.06965E-08
597.06898	2.07685E-08
597.24179	2.08412E-08
597.41461	2.09143E-08
597.58742	2.09878E-08
597.76023	2.10616E-08
597.93305	2.11355E-08
598.10586	2.12094E-08
598.27867	2.12832E-08
598.45149	2.13567E-08
598.62430	2.14298E-08
598.79711	2.15024E-08
598.96992	2.15744E-08
599.14274	2.16456E-08
599.31555	2.17157E-08
599.48836	2.17849E-08
599.66118	2.18529E-08
599.83399	2.19196E-08
600.00680	2.19849E-08
600.17962	2.20488E-08
600.35243	2.21109E-08
600.52524	2.21715E-08
600.69805	2.22303E-08
600.87087	2.22872E-08
601.04368	2.23421E-08
601.21649	2.23951E-08
601.38931	2.24461E-08
601.56212	2.24949E-08
601.73493	2.25418E-08
601.90775	2.25864E-08
602.08056	2.26290E-08
602.25337	2.26693E-08
602.42619	2.27077E-08
602.59900	2.27440E-08
602.77181	2.27783E-08
602.94462	2.28105E-08
603.11744	2.28408E-08
603.29025	2.28693E-08
603.46306	2.28959E-08
603.63588	2.29209E-08
603.80869	2.29443E-08
603.98150	2.29662E-08
604.15432	2.29867E-08
604.32713	2.30060E-08
604.49994	2.30241E-08
604.67275	2.30413E-08
604.84557	2.30575E-08
605.01838	2.30729E-08
605.19119	2.30879E-08
605.36401	2.31024E-08
605.53682	2.31165E-08
605.70963	2.31305E-08
605.88245	2.31445E-08
606.05526	2.31586E-08
606.22807	2.31730E-08
606.40088	2.31879E-08
606.57370	2.32033E-08
606.74651	2.32195E-08
606.91932	2.32365E-08
607.09214	2.32546E-08
607.26495	2.32738E-08
607.43776	2.32943E-08
607.61058	2.33160E-08
607.78339	2.33392E-08
607.95620	2.33642E-08
608.12901	2.33907E-08
608.30183	2.34190E-08
608.47464	2.34492E-08
608.64745	2.34815E-08
608.82027	2.35156E-08
608.99308	2.35521E-08
609.16589	2.35907E-08
609.33871	2.36313E-08
609.51152	2.36742E-08
609.68433	2.37196E-08
609.85714	2.37671E-08
610.02996	2.38171E-08
610.20277	2.38692E-08
610.37558	2.39237E-08
610.54840	2.39807E-08
610.72121	2.40399E-08
610.89402	2.41013E-08
611.06684	2.41649E-08
611.23965	2.42308E-08
611.41246	2.42988E-08
611.58528	2.43687E-08
611.75809	2.44408E-08
611.93090	2.45147E-08
612.10371	2.45905E-08
612.27653	2.46678E-08
612.44934	2.47470E-08
612.62215	2.48275E-08
612.79497	2.49094E-08
612.96778	2.49926E-08
613.14059	2.50770E-08
613.31341	2.51622E-08
613.48622	2.52484E-08
613.65903	2.53352E-08
613.83184	2.54228E-08
614.00466	2.55105E-08
614.17747	2.55985E-08
614.35028	2.56865E-08
614.52310	2.57747E-08
614.69591	2.58625E-08
614.86872	2.59500E-08
615.04154	2.60369E-08
615.21435	2.61233E-08
615.38716	2.62088E-08
615.55997	2.62932E-08
615.73279	2.63767E-08
615.90560	2.64591E-08
616.07841	2.65400E-08
616.25123	2.66196E-08
616.42404	2.66975E-08
616.59685	2.67742E-08
616.76967	2.68488E-08
616.94248	2.69219E-08
617.11529	2.69933E-08
617.28810	2.70627E-08
617.46092	2.71303E-08
617.63373	2.71963E-08
617.80654	2.72602E-08
617.97936	2.73224E-08
618.15217	2.73829E-08
618.32498	2.74414E-08
618.49780	2.74984E-08
618.67061	2.75540E-08
618.84342	2.76078E-08
619.01623	2.76603E-08
619.18905	2.77117E-08
619.36186	2.77617E-08
619.53467	2.78107E-08
619.70749	2.78589E-08
619.88030	2.79065E-08
620.05311	2.79536E-08
620.22593	2.80002E-08
620.39874	2.80468E-08
620.57155	2.80933E-08
620.74437	2.81401E-08
620.91718	2.81872E-08
621.08999	2.82351E-08
621.26280	2.82840E-08
621.43562	2.83337E-08
621.60843	2.83850E-08
621.78124	2.84376E-08
621.95406	2.84921E-08
622.12687	2.85485E-08
622.29968	2.86072E-08
622.47250	2.86681E-08
622.64531	2.87317E-08
622.81812	2.87981E-08
622.99093	2.88675E-08
623.16375	2.89401E-08
623.33656	2.90159E-08
623.50937	2.90956E-08
623.68219	2.91787E-08
623.85500	2.92661E-08
624.02781	2.93572E-08
624.20063	2.94525E-08
624.37344	2.95520E-08
624.54625	2.96561E-08
624.71906	2.97649E-08
624.89188	2.98783E-08
625.06469	2.99963E-08
625.23750	3.01193E-08
625.41032	3.02469E-08
625.58313	3.03794E-08
625.75594	3.05169E-08
625.92876	3.06595E-08
626.10157	3.08067E-08
626.27438	3.09592E-08
626.44719	3.11164E-08
626.62001	3.12782E-08
626.79282	3.14451E-08
626.96563	3.16162E-08
627.13845	3.17921E-08
627.31126	3.19721E-08
627.48407	3.21569E-08
627.65689	3.23452E-08
627.82970	3.25375E-08
628.00251	3.27334E-08
628.17532	3.29327E-08
628.34814	3.31351E-08
628.52095	3.33404E-08
628.69376	3.35481E-08
628.86658	3.37580E-08
629.03939	3.39698E-08
629.21220	3.41831E-08
629.38502	3.43974E-08
629.55783	3.46124E-08
629.73064	3.48278E-08
629.90346	3.50431E-08
630.07627	3.52579E-08
630.24908	3.54715E-08
630.42189	3.56838E-08
630.59471	3.58941E-08
630.76752	3.61020E-08
630.94033	3.63073E-08
631.11315	3.65092E-08
631.28596	3.67075E-08
631.45877	3.69016E-08
631.63159	3.70914E-08
631.80440	3.72762E-08
631.97721	3.74557E-08
632.15002	3.76297E-08
632.32284	3.77977E-08
632.49565	3.79596E-08
632.66846	3.81151E-08
632.84128	3.82639E-08
633.01409	3.84059E-08
633.18690	3.85410E-08
633.35972	3.86690E-08
633.53253	3.87901E-08
633.70534	3.89040E-08
633.87815	3.90110E-08
634.05097	3.91110E-08
634.22378	3.92042E-08
634.39659	3.92908E-08
634.56941	3.93709E-08
634.74222	3.94448E-08
634.91503	3.95130E-08
635.08785	3.95757E-08
635.26066	3.96332E-08
635.43347	3.96861E-08
635.60628	3.97346E-08
635.77910	3.97793E-08
635.95191	3.98207E-08
636.12472	3.98594E-08
636.29754	3.98958E-08
636.47035	3.99304E-08
636.64316	3.99639E-08
636.81598	3.99970E-08
636.98879	4.00299E-08
637.16160	4.00634E-08
637.33441	4.00979E-08
637.50723	4.01343E-08
637.68004	4.01730E-08
637.85285	4.02146E-08
638.02567	4.02597E-08
638.19848	4.03088E-08
638.37129	4.03624E-08
638.54411	4.04213E-08
638.71692	4.04857E-08
638.88973	4.05564E-08
639.06255	4.06336E-08
639.23536	4.07181E-08
639.40817	4.08101E-08
639.58098	4.09103E-08
639.75380	4.10189E-08
639.92661	4.11365E-08
640.09942	4.12634E-08
640.27224	4.14000E-08
640.44505	4.15465E-08
640.61786	4.17034E-08
640.79068	4.18710E-08
640.96349	4.20495E-08
641.13630	4.22392E-08
641.30911	4.24404E-08
641.48193	4.26532E-08
641.65474	4.28778E-08
641.82755	4.31143E-08
642.00037	4.33631E-08
642.17318	4.36239E-08
642.34599	4.38971E-08
642.51881	4.41824E-08
642.69162	4.44802E-08
642.86443	4.47901E-08
643.03724	4.51122E-08
643.21006	4.54463E-08
643.38287	4.57922E-08
643.55568	4.61498E-08
643.72850	4.65187E-08
643.90131	4.68987E-08
644.07412	4.72891E-08
644.24694	4.76898E-08
644.41975	4.81001E-08
644.59256	4.85196E-08
644.76537	4.89477E-08
644.93819	4.93836E-08
645.11100	4.98266E-08
645.28381	5.02759E-08
645.45663	5.07307E-08
645.62944	5.11901E-08
645.80225	5.16531E-08
645.97507	5.21186E-08
646.14788	5.25857E-08
646.32069	5.30531E-08
646.49351	5.35197E-08
646.66632	5.39846E-08
646.83913	5.44460E-08
647.01194	5.49031E-08
647.18476	5.53544E-08
647.35757	5.57987E-08
647.53038	5.62348E-08
647.70320	5.66614E-08
647.87601	5.70773E-08
648.04882	5.74814E-08
648.22164	5.78724E-08
648.39445	5.82492E-08
648.56726	5.86111E-08
648.74007	5.89571E-08
648.91289	5.92864E-08
649.08570	5.95980E-08
649.25851	5.98919E-08
649.43133	6.01672E-08
649.60414	6.04237E-08
649.77695	6.06613E-08
649.94977	6.08798E-08
650.12258	6.10792E-08
650.29539	6.12600E-08
650.46820	6.14225E-08
650.64102	6.15669E-08
650.81383	6.16941E-08
650.98664	6.18047E-08
651.15946	6.18998E-08
651.33227	6.19800E-08
651.50508	6.20466E-08
651.67790	6.21010E-08
651.85071	6.21439E-08
652.02352	6.21767E-08
652.19633	6.22010E-08
652.36915	6.22181E-08
652.54196	6.22294E-08
652.71477	6.22365E-08
652.88759	6.22406E-08
653.06040	6.22435E-08
653.23321	6.22465E-08
653.40603	6.22511E-08
653.57884	6.22588E-08
653.75165	6.22712E-08
653.92446	6.22894E-08
654.09728	6.23150E-08
654.27009	6.23495E-08
654.44290	6.23939E-08
654.61572	6.24496E-08
654.78853	6.25179E-08
654.96134	6.26000E-08
655.13416	6.26969E-08
655.30697	6.28098E-08
655.47978	6.29397E-08
655.65260	6.30877E-08
655.82541	6.32547E-08
655.99822	6.34414E-08
656.17103	6.36491E-08
656.34385	6.38781E-08
656.51666	6.41295E-08
656.68947	6.44037E-08
656.86229	6.47017E-08
657.03510	6.50237E-08
657.20791	6.53705E-08
657.38073	6.57427E-08
657.55354	6.61401E-08
657.72635	6.65636E-08
657.89916	6.70132E-08
658.07198	6.74889E-08
658.24479	6.79911E-08
658.41760	6.85197E-08
658.59042	6.90745E-08
658.76323	6.96553E-08
658.93604	7.02619E-08
659.10886	7.08938E-08
659.28167	7.15505E-08
659.45448	7.22310E-08
659.62729	7.29345E-08
659.80011	7.36605E-08
659.97292	7.44072E-08
660.14573	7.51736E-08
660.31855	7.59580E-08
660.49136	7.67589E-08
660.66417	7.75741E-08
660.83699	7.84018E-08
661.00980	7.92393E-08
661.18261	8.00847E-08
661.35542	8.09349E-08
661.52824	8.17870E-08
661.70105	8.26382E-08
661.87386	8.34852E-08
662.04668	8.43246E-08
662.21949	8.51534E-08
662.39230	8.59672E-08
662.56512	8.67628E-08
662.73793	8.75367E-08
662.91074	8.82852E-08
663.08355	8.90043E-08
663.25637	8.96912E-08
663.42918	9.03417E-08
663.60199	9.09531E-08
663.77481	9.15224E-08
663.94762	9.20470E-08
664.12043	9.25239E-08
664.29325	9.29515E-08
664.46606	9.33279E-08
664.63887	9.36517E-08
664.81169	9.39223E-08
664.98450	9.41389E-08
665.15731	9.43017E-08
665.33012	9.44119E-08
665.50294	9.44694E-08
665.67575	9.44762E-08
665.84856	9.44337E-08
666.02138	9.43447E-08
666.19419	9.42110E-08
666.36700	9.40357E-08
666.53982	9.38224E-08
666.71263	9.35746E-08
666.88544	9.32952E-08
667.05825	9.29886E-08
667.23107	9.26587E-08
667.40388	9.23096E-08
667.57669	9.19450E-08
667.74951	9.15692E-08
667.92232	9.11864E-08
668.09513	9.08008E-08
668.26795	9.04160E-08
668.44076	9.00363E-08
668.61357	8.96649E-08
668.78638	8.93060E-08
668.95920	8.89630E-08
669.13201	8.86397E-08
669.30482	8.83388E-08
669.47764	8.80637E-08
669.65045	8.78176E-08
669.82326	8.76040E-08
669.99608	8.74246E-08
670.16889	8.72830E-08
670.34170	8.71812E-08
670.51451	8.71224E-08
670.68733	8.71090E-08
670.86014	8.71433E-08
671.03295	8.72280E-08
671.20577	8.73649E-08
671.37858	8.75570E-08
671.55139	8.78067E-08
671.72421	8.81159E-08
671.89702	8.84877E-08
672.06983	8.89245E-08
672.24264	8.94283E-08
672.41546	9.00024E-08
672.58827	9.06491E-08
672.76108	9.13717E-08
672.93390	9.21729E-08
673.10671	9.30555E-08
673.27952	9.40230E-08
673.45234	9.50789E-08
673.62515	9.62269E-08
673.79796	9.74699E-08
673.97078	9.88121E-08
674.14359	1.00258E-07
674.31640	1.01811E-07
674.48921	1.03476E-07
674.66203	1.05256E-07
674.83484	1.07158E-07
675.00765	1.09185E-07
675.18047	1.11342E-07
675.35328	1.13635E-07
675.52609	1.16068E-07
675.69891	1.18645E-07
675.87172	1.21374E-07
676.04453	1.24255E-07
676.21734	1.27296E-07
676.39016	1.30500E-07
676.56297	1.33870E-07
676.73578	1.37410E-07
676.90860	1.41121E-07
677.08141	1.45005E-07
677.25422	1.49061E-07
677.42704	1.53289E-07
677.59985	1.57685E-07
677.77266	1.62242E-07
677.94547	1.66956E-07
678.11829	1.71815E-07
678.29110	1.76807E-07
678.46391	1.81915E-07
678.63673	1.87120E-07
678.80954	1.92400E-07
678.98235	1.97725E-07
679.15517	2.03067E-07
679.32798	2.08391E-07
679.50079	2.13657E-07
679.67360	2.18827E-07
679.84642	2.23853E-07
680.01923	2.28691E-07
680.19204	2.33293E-07
680.36486	2.37612E-07
680.53767	2.41599E-07
680.71048	2.45212E-07
680.88330	2.48410E-07
681.05611	2.51157E-07
681.22892	2.53425E-07
681.40173	2.55191E-07
681.57455	2.56442E-07
681.74736	2.57173E-07
681.92017	2.57388E-07
682.09299	2.57101E-07
682.26580	2.56333E-07
682.43861	2.55111E-07
682.61143	2.53472E-07
682.78424	2.51455E-07
682.95705	2.49104E-07
683.12987	2.46465E-07
683.30268	2.43587E-07
683.47549	2.40516E-07
683.64830	2.37300E-07
683.82112	2.33980E-07
683.99393	2.30600E-07
684.16674	2.27199E-07
684.33956	2.23811E-07
684.51237	2.20468E-07
684.68518	2.17198E-07
684.85800	2.14027E-07
685.03081	2.10976E-07
685.20362	2.08066E-07
685.37643	2.05310E-07
685.54925	2.02726E-07
685.72206	2.00323E-07
685.89487	1.98111E-07
686.06769	1.96103E-07
686.24050	1.94300E-07
686.41331	1.92717E-07
686.58613	1.91355E-07
686.75894	1.90222E-07
686.93175	1.89324E-07
687.10456	1.88665E-07
687.27738	1.88254E-07
687.45019	1.88097E-07
687.62300	1.88200E-07
687.79582	1.88570E-07
687.96863	1.89220E-07
688.14144	1.90157E-07
688.31426	1.91394E-07
688.48707	1.92945E-07
688.65988	1.94822E-07
688.83269	1.97043E-07
689.00551	1.99628E-07
689.17832	2.02599E-07
689.35113	2.05978E-07
689.52395	2.09795E-07
689.69676	2.14081E-07
689.86957	2.18871E-07
690.04239	2.24204E-07
690.21520	2.30128E-07
690.38801	2.36691E-07
690.56082	2.43954E-07
690.73364	2.51980E-07
690.90645	2.60844E-07
691.07926	2.70630E-07
691.25208	2.81430E-07
691.42489	2.93353E-07
691.59770	3.06516E-07
691.77052	3.21053E-07
691.94333	3.37114E-07
692.11614	3.54865E-07
692.28896	3.74486E-07
692.46177	3.96172E-07
692.63458	4.20131E-07
692.80739	4.46578E-07
692.98021	4.75720E-07
693.15302	5.07744E-07
693.32583	5.42797E-07
693.49865	5.80944E-07
693.67146	6.22135E-07
693.84427	6.66147E-07
694.01709	7.12535E-07
694.18990	7.60580E-07
694.36271	8.09296E-07
694.53552	8.57446E-07
694.70834	9.03675E-07
694.88115	9.46686E-07
695.05396	9.85445E-07
695.22678	1.01939E-06
695.39959	1.04850E-06
695.57240	1.07333E-06
695.74522	1.09487E-06
695.91803	1.11440E-06
696.09084	1.13331E-06
696.26365	1.15300E-06
696.43647	1.17479E-06
696.60928	1.19986E-06
696.78209	1.22926E-06
696.95491	1.26385E-06
697.12772	1.30424E-06
697.30053	1.35066E-06
697.47335	1.40274E-06
697.64616	1.45907E-06
697.81897	1.51672E-06
697.99178	1.57065E-06
698.16460	1.61350E-06
698.33741	1.63630E-06
698.51022	1.63083E-06
698.68304	1.59285E-06
698.85585	1.52452E-06
699.02866	1.43367E-06
699.20148	1.33064E-06
699.37429	1.22482E-06
699.54710	1.12290E-06
699.71991	1.02870E-06
699.89273	9.43870E-07
700.06554	8.68651E-07
700.23835	8.02549E-07
700.41117	7.44735E-07
700.58398	6.94269E-07
700.75679	6.50243E-07
700.92961	6.11823E-07
701.10242	5.78279E-07
701.27523	5.48981E-07
701.44805	5.23391E-07
701.62086	5.01052E-07
701.79367	4.81586E-07
701.96648	4.64669E-07
702.13930	4.50038E-07
702.31211	4.37468E-07
702.48492	4.26779E-07
702.65774	4.17819E-07
702.83055	4.10466E-07
703.00336	4.04626E-07
703.17618	4.00228E-07
703.34899	3.97221E-07
703.52180	3.95575E-07
703.69461	3.95279E-07
703.86743	3.96342E-07
704.04024	3.98792E-07
704.21305	4.02680E-07
704.38587	4.08081E-07
704.55868	4.15091E-07
704.73149	4.23838E-07
704.90431	4.34484E-07
705.07712	4.47227E-07
705.24993	4.62314E-07
705.42274	4.80042E-07
705.59556	5.00770E-07
705.76837	5.24930E-07
705.94118	5.53028E-07
706.11400	5.85649E-07
706.28681	6.23440E-07
706.45962	6.67063E-07
706.63244	7.17076E-07
706.80525	7.73703E-07
706.97806	8.36398E-07
707.15087	9.03144E-07
707.32369	9.69516E-07
707.49650	1.02802E-06
707.66931	1.06879E-06