Wavenumber	NESR 2.85 cm-1
17.97255	6.83653E-09
18.14537	6.72789E-09
18.31818	6.62242E-09
18.49099	6.52026E-09
18.66381	6.42152E-09
18.83662	6.32622E-09
19.00943	6.23439E-09
19.18225	6.14609E-09
19.35506	6.06126E-09
19.52787	5.97992E-09
19.70068	5.90205E-09
19.87350	5.82755E-09
20.04631	5.75639E-09
20.21912	5.68852E-09
20.39194	5.62388E-09
20.56475	5.56239E-09
20.73756	5.50401E-09
20.91038	5.44861E-09
21.08319	5.39615E-09
21.25600	5.34653E-09
21.42881	5.29964E-09
21.60163	5.25548E-09
21.77444	5.21390E-09
21.94725	5.17487E-09
22.12007	5.13828E-09
22.29288	5.10405E-09
22.46569	5.07209E-09
22.63851	5.04233E-09
22.81132	5.01467E-09
22.98413	4.98910E-09
23.15695	4.96551E-09
23.32976	4.94381E-09
23.50257	4.92392E-09
23.67538	4.90581E-09
23.84820	4.88934E-09
24.02101	4.87449E-09
24.19382	4.86119E-09
24.36664	4.84933E-09
24.53945	4.83888E-09
24.71226	4.82976E-09
24.88508	4.82185E-09
25.05789	4.81515E-09
25.23070	4.80956E-09
25.40351	4.80500E-09
25.57633	4.80142E-09
25.74914	4.79875E-09
25.92195	4.79693E-09
26.09477	4.79589E-09
26.26758	4.79554E-09
26.44039	4.79584E-09
26.61321	4.79671E-09
26.78602	4.79809E-09
26.95883	4.79992E-09
27.13164	4.80213E-09
27.30446	4.80467E-09
27.47727	4.80744E-09
27.65008	4.81043E-09
27.82290	4.81356E-09
27.99571	4.81676E-09
28.16852	4.81998E-09
28.34134	4.82319E-09
28.51415	4.82631E-09
28.68696	4.82928E-09
28.85977	4.83211E-09
29.03259	4.83470E-09
29.20540	4.83703E-09
29.37821	4.83906E-09
29.55103	4.84075E-09
29.72384	4.84206E-09
29.89665	4.84298E-09
30.06947	4.84346E-09
30.24228	4.84350E-09
30.41509	4.84304E-09
30.58790	4.84211E-09
30.76072	4.84067E-09
30.93353	4.83874E-09
31.10634	4.83625E-09
31.27916	4.83325E-09
31.45197	4.82973E-09
31.62478	4.82567E-09
31.79760	4.82110E-09
31.97041	4.81600E-09
32.14322	4.81043E-09
32.31604	4.80435E-09
32.48885	4.79784E-09
32.66166	4.79084E-09
32.83447	4.78342E-09
33.00729	4.77560E-09
33.18010	4.76738E-09
33.35291	4.75880E-09
33.52573	4.74990E-09
33.69854	4.74068E-09
33.87135	4.73122E-09
34.04417	4.72149E-09
34.21698	4.71152E-09
34.38979	4.70141E-09
34.56260	4.69113E-09
34.73542	4.68073E-09
34.90823	4.67021E-09
35.08104	4.65966E-09
35.25386	4.64908E-09
35.42667	4.63849E-09
35.59948	4.62793E-09
35.77230	4.61742E-09
35.94511	4.60698E-09
36.11792	4.59668E-09
36.29073	4.58650E-09
36.46355	4.57648E-09
36.63636	4.56666E-09
36.80917	4.55703E-09
36.98199	4.54764E-09
37.15480	4.53848E-09
37.32761	4.52957E-09
37.50043	4.52096E-09
37.67324	4.51265E-09
37.84605	4.50464E-09
38.01886	4.49694E-09
38.19168	4.48959E-09
38.36449	4.48258E-09
38.53730	4.47591E-09
38.71012	4.46961E-09
38.88293	4.46366E-09
39.05574	4.45807E-09
39.22856	4.45286E-09
39.40137	4.44802E-09
39.57418	4.44354E-09
39.74699	4.43943E-09
39.91981	4.43568E-09
40.09262	4.43232E-09
40.26543	4.42929E-09
40.43825	4.42660E-09
40.61106	4.42427E-09
40.78387	4.42230E-09
40.95669	4.42062E-09
41.12950	4.41928E-09
41.30231	4.41824E-09
41.47513	4.41750E-09
41.64794	4.41705E-09
41.82075	4.41685E-09
41.99356	4.41690E-09
42.16638	4.41721E-09
42.33919	4.41773E-09
42.51200	4.41847E-09
42.68482	4.41940E-09
42.85763	4.42051E-09
43.03044	4.42176E-09
43.20326	4.42319E-09
43.37607	4.42472E-09
43.54888	4.42637E-09
43.72169	4.42810E-09
43.89451	4.42990E-09
44.06732	4.43178E-09
44.24013	4.43367E-09
44.41295	4.43562E-09
44.58576	4.43758E-09
44.75857	4.43951E-09
44.93139	4.44144E-09
45.10420	4.44332E-09
45.27701	4.44517E-09
45.44982	4.44693E-09
45.62264	4.44865E-09
45.79545	4.45025E-09
45.96826	4.45179E-09
46.14108	4.45321E-09
46.31389	4.45452E-09
46.48670	4.45567E-09
46.65952	4.45674E-09
46.83233	4.45764E-09
47.00514	4.45841E-09
47.17795	4.45902E-09
47.35077	4.45950E-09
47.52358	4.45982E-09
47.69639	4.45999E-09
47.86921	4.45999E-09
48.04202	4.45986E-09
48.21483	4.45956E-09
48.38765	4.45908E-09
48.56046	4.45850E-09
48.73327	4.45776E-09
48.90608	4.45690E-09
49.07890	4.45587E-09
49.25171	4.45473E-09
49.42452	4.45346E-09
49.59734	4.45209E-09
49.77015	4.45061E-09
49.94296	4.44902E-09
50.11578	4.44735E-09
50.28859	4.44558E-09
50.46140	4.44377E-09
50.63422	4.44187E-09
50.80703	4.43992E-09
50.97984	4.43794E-09
51.15265	4.43591E-09
51.32547	4.43387E-09
51.49828	4.43183E-09
51.67109	4.42977E-09
51.84391	4.42773E-09
52.01672	4.42568E-09
52.18953	4.42370E-09
52.36235	4.42173E-09
52.53516	4.41981E-09
52.70797	4.41795E-09
52.88078	4.41614E-09
53.05360	4.41442E-09
53.22641	4.41277E-09
53.39922	4.41119E-09
53.57204	4.40973E-09
53.74485	4.40834E-09
53.91766	4.40708E-09
54.09048	4.40591E-09
54.26329	4.40487E-09
54.43610	4.40393E-09
54.60891	4.40313E-09
54.78173	4.40247E-09
54.95454	4.40190E-09
55.12735	4.40147E-09
55.30017	4.40118E-09
55.47298	4.40101E-09
55.64579	4.40099E-09
55.81861	4.40108E-09
55.99142	4.40131E-09
56.16423	4.40165E-09
56.33704	4.40214E-09
56.50986	4.40272E-09
56.68267	4.40344E-09
56.85548	4.40427E-09
57.02830	4.40521E-09
57.20111	4.40624E-09
57.37392	4.40739E-09
57.54674	4.40861E-09
57.71955	4.40994E-09
57.89236	4.41133E-09
58.06517	4.41281E-09
58.23799	4.41434E-09
58.41080	4.41592E-09
58.58361	4.41758E-09
58.75643	4.41926E-09
58.92924	4.42099E-09
59.10205	4.42272E-09
59.27487	4.42449E-09
59.44768	4.42627E-09
59.62049	4.42806E-09
59.79331	4.42983E-09
59.96612	4.43159E-09
60.13893	4.43333E-09
60.31174	4.43503E-09
60.48456	4.43672E-09
60.65737	4.43834E-09
60.83018	4.43993E-09
61.00300	4.44144E-09
61.17581	4.44291E-09
61.34862	4.44432E-09
61.52144	4.44564E-09
61.69425	4.44687E-09
61.86706	4.44803E-09
62.03987	4.44910E-09
62.21269	4.45008E-09
62.38550	4.45097E-09
62.55831	4.45176E-09
62.73113	4.45246E-09
62.90394	4.45303E-09
63.07675	4.45352E-09
63.24957	4.45392E-09
63.42238	4.45421E-09
63.59519	4.45442E-09
63.76800	4.45450E-09
63.94082	4.45448E-09
64.11363	4.45437E-09
64.28644	4.45418E-09
64.45926	4.45387E-09
64.63207	4.45349E-09
64.80488	4.45303E-09
64.97770	4.45246E-09
65.15051	4.45186E-09
65.32332	4.45116E-09
65.49613	4.45038E-09
65.66895	4.44957E-09
65.84176	4.44869E-09
66.01457	4.44774E-09
66.18739	4.44678E-09
66.36020	4.44575E-09
66.53301	4.44468E-09
66.70583	4.44360E-09
66.87864	4.44250E-09
67.05145	4.44137E-09
67.22426	4.44021E-09
67.39708	4.43908E-09
67.56989	4.43794E-09
67.74270	4.43678E-09
67.91552	4.43564E-09
68.08833	4.43454E-09
68.26114	4.43342E-09
68.43396	4.43235E-09
68.60677	4.43129E-09
68.77958	4.43028E-09
68.95240	4.42928E-09
69.12521	4.42832E-09
69.29802	4.42743E-09
69.47083	4.42656E-09
69.64365	4.42576E-09
69.81646	4.42500E-09
69.98927	4.42431E-09
70.16209	4.42364E-09
70.33490	4.42307E-09
70.50771	4.42251E-09
70.68053	4.42205E-09
70.85334	4.42164E-09
71.02615	4.42126E-09
71.19896	4.42096E-09
71.37178	4.42072E-09
71.54459	4.42050E-09
71.71740	4.42038E-09
71.89022	4.42026E-09
72.06303	4.42023E-09
72.23584	4.42026E-09
72.40866	4.42030E-09
72.58147	4.42039E-09
72.75428	4.42051E-09
72.92709	4.42067E-09
73.09991	4.42084E-09
73.27272	4.42106E-09
73.44553	4.42129E-09
73.61835	4.42155E-09
73.79116	4.42180E-09
73.96397	4.42206E-09
74.13679	4.42233E-09
74.30960	4.42262E-09
74.48241	4.42290E-09
74.65522	4.42315E-09
74.82804	4.42339E-09
75.00085	4.42361E-09
75.17366	4.42381E-09
75.34648	4.42396E-09
75.51929	4.42410E-09
75.69210	4.42420E-09
75.86492	4.42423E-09
76.03773	4.42422E-09
76.21054	4.42417E-09
76.38335	4.42407E-09
76.55617	4.42390E-09
76.72898	4.42367E-09
76.90179	4.42337E-09
77.07461	4.42300E-09
77.24742	4.42257E-09
77.42023	4.42207E-09
77.59305	4.42149E-09
77.76586	4.42084E-09
77.93867	4.42011E-09
78.11149	4.41931E-09
78.28430	4.41841E-09
78.45711	4.41745E-09
78.62992	4.41642E-09
78.80274	4.41529E-09
78.97555	4.41409E-09
79.14836	4.41285E-09
79.32118	4.41150E-09
79.49399	4.41009E-09
79.66680	4.40861E-09
79.83962	4.40704E-09
80.01243	4.40543E-09
80.18524	4.40374E-09
80.35805	4.40201E-09
80.53087	4.40022E-09
80.70368	4.39836E-09
80.87649	4.39648E-09
81.04931	4.39454E-09
81.22212	4.39256E-09
81.39493	4.39053E-09
81.56775	4.38847E-09
81.74056	4.38637E-09
81.91337	4.38424E-09
82.08618	4.38209E-09
82.25900	4.37992E-09
82.43181	4.37776E-09
82.60462	4.37555E-09
82.77744	4.37334E-09
82.95025	4.37114E-09
83.12306	4.36893E-09
83.29588	4.36673E-09
83.46869	4.36453E-09
83.64150	4.36234E-09
83.81431	4.36015E-09
83.98713	4.35798E-09
84.15994	4.35584E-09
84.33275	4.35370E-09
84.50557	4.35157E-09
84.67838	4.34947E-09
84.85119	4.34742E-09
85.02401	4.34536E-09
85.19682	4.34331E-09
85.36963	4.34133E-09
85.54244	4.33936E-09
85.71526	4.33741E-09
85.88807	4.33547E-09
86.06088	4.33357E-09
86.23370	4.33169E-09
86.40651	4.32986E-09
86.57932	4.32803E-09
86.75214	4.32623E-09
86.92495	4.32443E-09
87.09776	4.32267E-09
87.27058	4.32095E-09
87.44339	4.31920E-09
87.61620	4.31749E-09
87.78901	4.31578E-09
87.96183	4.31408E-09
88.13464	4.31242E-09
88.30745	4.31072E-09
88.48027	4.30904E-09
88.65308	4.30733E-09
88.82589	4.30565E-09
88.99871	4.30392E-09
89.17152	4.30220E-09
89.34433	4.30047E-09
89.51714	4.29870E-09
89.68996	4.29691E-09
89.86277	4.29512E-09
90.03558	4.29328E-09
90.20840	4.29139E-09
90.38121	4.28948E-09
90.55402	4.28754E-09
90.72684	4.28555E-09
90.89965	4.28352E-09
91.07246	4.28143E-09
91.24527	4.27932E-09
91.41809	4.27712E-09
91.59090	4.27488E-09
91.76371	4.27259E-09
91.93653	4.27025E-09
92.10934	4.26783E-09
92.28215	4.26535E-09
92.45497	4.26283E-09
92.62778	4.26023E-09
92.80059	4.25758E-09
92.97340	4.25486E-09
93.14622	4.25208E-09
93.31903	4.24923E-09
93.49184	4.24633E-09
93.66466	4.24335E-09
93.83747	4.24032E-09
94.01028	4.23724E-09
94.18310	4.23412E-09
94.35591	4.23092E-09
94.52872	4.22767E-09
94.70153	4.22437E-09
94.87435	4.22102E-09
95.04716	4.21762E-09
95.21997	4.21418E-09
95.39279	4.21071E-09
95.56560	4.20720E-09
95.73841	4.20367E-09
95.91123	4.20009E-09
96.08404	4.19649E-09
96.25685	4.19287E-09
96.42967	4.18923E-09
96.60248	4.18559E-09
96.77529	4.18194E-09
96.94810	4.17827E-09
97.12092	4.17461E-09
97.29373	4.17095E-09
97.46654	4.16730E-09
97.63936	4.16365E-09
97.81217	4.16004E-09
97.98498	4.15640E-09
98.15780	4.15283E-09
98.33061	4.14928E-09
98.50342	4.14575E-09
98.67623	4.14223E-09
98.84905	4.13876E-09
99.02186	4.13535E-09
99.19467	4.13196E-09
99.36749	4.12862E-09
99.54030	4.12531E-09
99.71311	4.12206E-09
99.88593	4.11886E-09
100.05874	4.11572E-09
100.23155	4.11261E-09
100.40436	4.10955E-09
100.57718	4.10658E-09
100.74999	4.10364E-09
100.92280	4.10075E-09
101.09562	4.09795E-09
101.26843	4.09517E-09
101.44124	4.09246E-09
101.61406	4.08982E-09
101.78687	4.08724E-09
101.95968	4.08468E-09
102.13249	4.08221E-09
102.30531	4.07977E-09
102.47812	4.07740E-09
102.65093	4.07507E-09
102.82375	4.07279E-09
102.99656	4.07056E-09
103.16937	4.06835E-09
103.34219	4.06621E-09
103.51500	4.06411E-09
103.68781	4.06203E-09
103.86062	4.05998E-09
104.03344	4.05797E-09
104.20625	4.05602E-09
104.37906	4.05407E-09
104.55188	4.05211E-09
104.72469	4.05021E-09
104.89750	4.04832E-09
105.07032	4.04642E-09
105.24313	4.04455E-09
105.41594	4.04266E-09
105.58876	4.04079E-09
105.76157	4.03893E-09
105.93438	4.03704E-09
106.10719	4.03516E-09
106.28001	4.03327E-09
106.45282	4.03136E-09
106.62563	4.02944E-09
106.79845	4.02749E-09
106.97126	4.02554E-09
107.14407	4.02355E-09
107.31689	4.02155E-09
107.48970	4.01951E-09
107.66251	4.01741E-09
107.83532	4.01532E-09
108.00814	4.01318E-09
108.18095	4.01100E-09
108.35376	4.00879E-09
108.52658	4.00656E-09
108.69939	4.00426E-09
108.87220	4.00194E-09
109.04502	3.99960E-09
109.21783	3.99721E-09
109.39064	3.99477E-09
109.56345	3.99229E-09
109.73627	3.98979E-09
109.90908	3.98724E-09
110.08189	3.98467E-09
110.25471	3.98206E-09
110.42752	3.97939E-09
110.60033	3.97671E-09
110.77315	3.97400E-09
110.94596	3.97127E-09
111.11877	3.96849E-09
111.29158	3.96571E-09
111.46440	3.96290E-09
111.63721	3.96005E-09
111.81002	3.95722E-09
111.98284	3.95436E-09
112.15565	3.95148E-09
112.32846	3.94860E-09
112.50128	3.94573E-09
112.67409	3.94286E-09
112.84690	3.93997E-09
113.01972	3.93711E-09
113.19253	3.93426E-09
113.36534	3.93141E-09
113.53815	3.92857E-09
113.71097	3.92577E-09
113.88378	3.92299E-09
114.05659	3.92023E-09
114.22941	3.91750E-09
114.40222	3.91480E-09
114.57503	3.91215E-09
114.74785	3.90953E-09
114.92066	3.90693E-09
115.09347	3.90439E-09
115.26628	3.90190E-09
115.43910	3.89945E-09
115.61191	3.89706E-09
115.78472	3.89472E-09
115.95754	3.89243E-09
116.13035	3.89021E-09
116.30316	3.88804E-09
116.47598	3.88591E-09
116.64879	3.88386E-09
116.82160	3.88186E-09
116.99441	3.87994E-09
117.16723	3.87808E-09
117.34004	3.87631E-09
117.51285	3.87458E-09
117.68567	3.87292E-09
117.85848	3.87134E-09
118.03129	3.86982E-09
118.20411	3.86839E-09
118.37692	3.86702E-09
118.54973	3.86572E-09
118.72254	3.86447E-09
118.89536	3.86331E-09
119.06817	3.86221E-09
119.24098	3.86119E-09
119.41380	3.86023E-09
119.58661	3.85934E-09
119.75942	3.85852E-09
119.93224	3.85775E-09
120.10505	3.85708E-09
120.27786	3.85645E-09
120.45067	3.85589E-09
120.62349	3.85538E-09
120.79630	3.85495E-09
120.96911	3.85458E-09
121.14193	3.85427E-09
121.31474	3.85402E-09
121.48755	3.85382E-09
121.66037	3.85367E-09
121.83318	3.85359E-09
122.00599	3.85358E-09
122.17881	3.85360E-09
122.35162	3.85369E-09
122.52443	3.85383E-09
122.69724	3.85402E-09
122.87006	3.85426E-09
123.04287	3.85455E-09
123.21568	3.85488E-09
123.38850	3.85529E-09
123.56131	3.85573E-09
123.73412	3.85621E-09
123.90694	3.85676E-09
124.07975	3.85734E-09
124.25256	3.85800E-09
124.42537	3.85868E-09
124.59819	3.85940E-09
124.77100	3.86021E-09
124.94381	3.86103E-09
125.11663	3.86194E-09
125.28944	3.86289E-09
125.46225	3.86390E-09
125.63507	3.86493E-09
125.80788	3.86605E-09
125.98069	3.86721E-09
126.15350	3.86842E-09
126.32632	3.86970E-09
126.49913	3.87103E-09
126.67194	3.87244E-09
126.84476	3.87390E-09
127.01757	3.87542E-09
127.19038	3.87700E-09
127.36320	3.87867E-09
127.53601	3.88039E-09
127.70882	3.88219E-09
127.88163	3.88403E-09
128.05445	3.88598E-09
128.22726	3.88799E-09
128.40007	3.89006E-09
128.57289	3.89219E-09
128.74570	3.89444E-09
128.91851	3.89675E-09
129.09133	3.89915E-09
129.26414	3.90163E-09
129.43695	3.90418E-09
129.60976	3.90681E-09
129.78258	3.90951E-09
129.95539	3.91230E-09
130.12820	3.91517E-09
130.30102	3.91814E-09
130.47383	3.92117E-09
130.64664	3.92431E-09
130.81946	3.92753E-09
130.99227	3.93081E-09
131.16508	3.93419E-09
131.33790	3.93766E-09
131.51071	3.94122E-09
131.68352	3.94484E-09
131.85633	3.94857E-09
132.02915	3.95236E-09
132.20196	3.95623E-09
132.37477	3.96019E-09
132.54759	3.96423E-09
132.72040	3.96835E-09
132.89321	3.97253E-09
133.06603	3.97677E-09
133.23884	3.98107E-09
133.41165	3.98548E-09
133.58446	3.98992E-09
133.75728	3.99443E-09
133.93009	3.99900E-09
134.10290	4.00364E-09
134.27572	4.00832E-09
134.44853	4.01304E-09
134.62134	4.01781E-09
134.79416	4.02264E-09
134.96697	4.02749E-09
135.13978	4.03238E-09
135.31259	4.03732E-09
135.48541	4.04227E-09
135.65822	4.04726E-09
135.83103	4.05228E-09
136.00385	4.05730E-09
136.17666	4.06236E-09
136.34947	4.06741E-09
136.52229	4.07248E-09
136.69510	4.07753E-09
136.86791	4.08262E-09
137.04072	4.08768E-09
137.21354	4.09275E-09
137.38635	4.09783E-09
137.55916	4.10288E-09
137.73198	4.10793E-09
137.90479	4.11297E-09
138.07760	4.11799E-09
138.25042	4.12299E-09
138.42323	4.12798E-09
138.59604	4.13293E-09
138.76885	4.13785E-09
138.94167	4.14275E-09
139.11448	4.14763E-09
139.28729	4.15250E-09
139.46011	4.15732E-09
139.63292	4.16211E-09
139.80573	4.16687E-09
139.97855	4.17161E-09
140.15136	4.17632E-09
140.32417	4.18098E-09
140.49699	4.18563E-09
140.66980	4.19024E-09
140.84261	4.19481E-09
141.01542	4.19938E-09
141.18824	4.20393E-09
141.36105	4.20844E-09
141.53386	4.21297E-09
141.70668	4.21746E-09
141.87949	4.22191E-09
142.05230	4.22637E-09
142.22512	4.23085E-09
142.39793	4.23529E-09
142.57074	4.23975E-09
142.74355	4.24419E-09
142.91637	4.24866E-09
143.08918	4.25310E-09
143.26199	4.25760E-09
143.43481	4.26211E-09
143.60762	4.26660E-09
143.78043	4.27116E-09
143.95325	4.27571E-09
144.12606	4.28033E-09
144.29887	4.28498E-09
144.47168	4.28964E-09
144.64450	4.29436E-09
144.81731	4.29915E-09
144.99012	4.30396E-09
145.16294	4.30885E-09
145.33575	4.31378E-09
145.50856	4.31879E-09
145.68138	4.32384E-09
145.85419	4.32898E-09
146.02700	4.33416E-09
146.19981	4.33944E-09
146.37263	4.34478E-09
146.54544	4.35023E-09
146.71825	4.35573E-09
146.89107	4.36134E-09
147.06388	4.36703E-09
147.23669	4.37281E-09
147.40951	4.37867E-09
147.58232	4.38461E-09
147.75513	4.39067E-09
147.92794	4.39681E-09
148.10076	4.40304E-09
148.27357	4.40934E-09
148.44638	4.41577E-09
148.61920	4.42225E-09
148.79201	4.42886E-09
148.96482	4.43555E-09
149.13764	4.44234E-09
149.31045	4.44917E-09
149.48326	4.45614E-09
149.65608	4.46319E-09
149.82889	4.47030E-09
150.00170	4.47747E-09
150.17451	4.48477E-09
150.34733	4.49209E-09
150.52014	4.49952E-09
150.69295	4.50703E-09
150.86577	4.51457E-09
151.03858	4.52218E-09
151.21139	4.52985E-09
151.38421	4.53758E-09
151.55702	4.54535E-09
151.72983	4.55317E-09
151.90264	4.56106E-09
152.07546	4.56897E-09
152.24827	4.57692E-09
152.42108	4.58488E-09
152.59390	4.59287E-09
152.76671	4.60089E-09
152.93952	4.60895E-09
153.11234	4.61700E-09
153.28515	4.62508E-09
153.45796	4.63315E-09
153.63077	4.64123E-09
153.80359	4.64932E-09
153.97640	4.65739E-09
154.14921	4.66547E-09
154.32203	4.67354E-09
154.49484	4.68157E-09
154.66765	4.68959E-09
154.84047	4.69762E-09
155.01328	4.70563E-09
155.18609	4.71362E-09
155.35890	4.72158E-09
155.53172	4.72951E-09
155.70453	4.73742E-09
155.87734	4.74530E-09
156.05016	4.75313E-09
156.22297	4.76100E-09
156.39578	4.76878E-09
156.56860	4.77659E-09
156.74141	4.78436E-09
156.91422	4.79209E-09
157.08703	4.79980E-09
157.25985	4.80749E-09
157.43266	4.81518E-09
157.60547	4.82286E-09
157.77829	4.83053E-09
157.95110	4.83815E-09
158.12391	4.84579E-09
158.29673	4.85347E-09
158.46954	4.86109E-09
158.64235	4.86874E-09
158.81517	4.87641E-09
158.98798	4.88407E-09
159.16079	4.89175E-09
159.33360	4.89945E-09
159.50642	4.90718E-09
159.67923	4.91493E-09
159.85204	4.92271E-09
160.02486	4.93055E-09
160.19767	4.93845E-09
160.37048	4.94634E-09
160.54330	4.95433E-09
160.71611	4.96235E-09
160.88892	4.97046E-09
161.06173	4.97860E-09
161.23455	4.98685E-09
161.40736	4.99517E-09
161.58017	5.00355E-09
161.75299	5.01200E-09
161.92580	5.02055E-09
162.09861	5.02917E-09
162.27143	5.03790E-09
162.44424	5.04675E-09
162.61705	5.05566E-09
162.78986	5.06468E-09
162.96268	5.07377E-09
163.13549	5.08301E-09
163.30830	5.09232E-09
163.48112	5.10170E-09
163.65393	5.11124E-09
163.82674	5.12085E-09
163.99956	5.13058E-09
164.17237	5.14038E-09
164.34518	5.15030E-09
164.51799	5.16029E-09
164.69081	5.17042E-09
164.86362	5.18063E-09
165.03643	5.19090E-09
165.20925	5.20129E-09
165.38206	5.21171E-09
165.55487	5.22227E-09
165.72769	5.23286E-09
165.90050	5.24354E-09
166.07331	5.25423E-09
166.24612	5.26503E-09
166.41894	5.27586E-09
166.59175	5.28672E-09
166.76456	5.29763E-09
166.93738	5.30858E-09
167.11019	5.31957E-09
167.28300	5.33055E-09
167.45582	5.34156E-09
167.62863	5.35252E-09
167.80144	5.36353E-09
167.97426	5.37448E-09
168.14707	5.38542E-09
168.31988	5.39631E-09
168.49269	5.40718E-09
168.66551	5.41799E-09
168.83832	5.42875E-09
169.01113	5.43945E-09
169.18395	5.45010E-09
169.35676	5.46064E-09
169.52957	5.47107E-09
169.70239	5.48144E-09
169.87520	5.49170E-09
170.04801	5.50183E-09
170.22082	5.51186E-09
170.39364	5.52177E-09
170.56645	5.53156E-09
170.73926	5.54123E-09
170.91208	5.55072E-09
171.08489	5.56005E-09
171.25770	5.56930E-09
171.43052	5.57833E-09
171.60333	5.58723E-09
171.77614	5.59600E-09
171.94895	5.60458E-09
172.12177	5.61304E-09
172.29458	5.62131E-09
172.46739	5.62940E-09
172.64021	5.63734E-09
172.81302	5.64515E-09
172.98583	5.65276E-09
173.15865	5.66024E-09
173.33146	5.66758E-09
173.50427	5.67478E-09
173.67708	5.68179E-09
173.84990	5.68869E-09
174.02271	5.69544E-09
174.19552	5.70211E-09
174.36834	5.70861E-09
174.54115	5.71497E-09
174.71396	5.72128E-09
174.88678	5.72743E-09
175.05959	5.73354E-09
175.23240	5.73949E-09
175.40521	5.74545E-09
175.57803	5.75129E-09
175.75084	5.75702E-09
175.92365	5.76276E-09
176.09647	5.76845E-09
176.26928	5.77414E-09
176.44209	5.77972E-09
176.61491	5.78536E-09
176.78772	5.79099E-09
176.96053	5.79656E-09
177.13335	5.80218E-09
177.30616	5.80785E-09
177.47897	5.81353E-09
177.65178	5.81926E-09
177.82460	5.82498E-09
177.99741	5.83081E-09
178.17022	5.83675E-09
178.34304	5.84270E-09
178.51585	5.84874E-09
178.68866	5.85490E-09
178.86148	5.86117E-09
179.03429	5.86749E-09
179.20710	5.87392E-09
179.37991	5.88051E-09
179.55273	5.88716E-09
179.72554	5.89398E-09
179.89835	5.90091E-09
180.07117	5.90802E-09
180.24398	5.91519E-09
180.41679	5.92253E-09
180.58961	5.93005E-09
180.76242	5.93768E-09
180.93523	5.94543E-09
181.10804	5.95330E-09
181.28086	5.96134E-09
181.45367	5.96950E-09
181.62648	5.97779E-09
181.79930	5.98626E-09
181.97211	5.99479E-09
182.14492	6.00345E-09
182.31774	6.01224E-09
182.49055	6.02116E-09
182.66336	6.03022E-09
182.83617	6.03935E-09
183.00899	6.04855E-09
183.18180	6.05788E-09
183.35461	6.06724E-09
183.52743	6.07673E-09
183.70024	6.08623E-09
183.87305	6.09581E-09
184.04587	6.10547E-09
184.21868	6.11508E-09
184.39149	6.12478E-09
184.56430	6.13449E-09
184.73712	6.14417E-09
184.90993	6.15387E-09
185.08274	6.16353E-09
185.25556	6.17315E-09
185.42837	6.18272E-09
185.60118	6.19225E-09
185.77400	6.20174E-09
185.94681	6.21113E-09
186.11962	6.22043E-09
186.29244	6.22967E-09
186.46525	6.23875E-09
186.63806	6.24771E-09
186.81087	6.25656E-09
186.98369	6.26525E-09
187.15650	6.27377E-09
187.32931	6.28215E-09
187.50213	6.29035E-09
187.67494	6.29836E-09
187.84775	6.30619E-09
188.02057	6.31382E-09
188.19338	6.32124E-09
188.36619	6.32844E-09
188.53900	6.33541E-09
188.71182	6.34215E-09
188.88463	6.34867E-09
189.05744	6.35495E-09
189.23026	6.36099E-09
189.40307	6.36680E-09
189.57588	6.37235E-09
189.74870	6.37766E-09
189.92151	6.38272E-09
190.09432	6.38752E-09
190.26713	6.39210E-09
190.43995	6.39640E-09
190.61276	6.40047E-09
190.78557	6.40430E-09
190.95839	6.40788E-09
191.13120	6.41123E-09
191.30401	6.41436E-09
191.47683	6.41725E-09
191.64964	6.41993E-09
191.82245	6.42239E-09
191.99526	6.42464E-09
192.16808	6.42669E-09
192.34089	6.42855E-09
192.51370	6.43022E-09
192.68652	6.43172E-09
192.85933	6.43302E-09
193.03214	6.43419E-09
193.20496	6.43520E-09
193.37777	6.43606E-09
193.55058	6.43681E-09
193.72339	6.43742E-09
193.89621	6.43792E-09
194.06902	6.43832E-09
194.24183	6.43863E-09
194.41465	6.43883E-09
194.58746	6.43898E-09
194.76027	6.43905E-09
194.93309	6.43908E-09
195.10590	6.43905E-09
195.27871	6.43898E-09
195.45153	6.43888E-09
195.62434	6.43877E-09
195.79715	6.43865E-09
195.96996	6.43853E-09
196.14278	6.43840E-09
196.31559	6.43828E-09
196.48840	6.43819E-09
196.66122	6.43812E-09
196.83403	6.43809E-09
197.00684	6.43809E-09
197.17966	6.43814E-09
197.35247	6.43824E-09
197.52528	6.43838E-09
197.69809	6.43858E-09
197.87091	6.43885E-09
198.04372	6.43919E-09
198.21653	6.43960E-09
198.38935	6.44007E-09
198.56216	6.44061E-09
198.73497	6.44123E-09
198.90779	6.44192E-09
199.08060	6.44269E-09
199.25341	6.44352E-09
199.42622	6.44444E-09
199.59904	6.44543E-09
199.77185	6.44648E-09
199.94466	6.44763E-09
200.11748	6.44885E-09
200.29029	6.45012E-09
200.46310	6.45146E-09
200.63592	6.45287E-09
200.80873	6.45435E-09
200.98154	6.45590E-09
201.15435	6.45750E-09
201.32717	6.45915E-09
201.49998	6.46086E-09
201.67279	6.46261E-09
201.84561	6.46440E-09
202.01842	6.46624E-09
202.19123	6.46813E-09
202.36405	6.47005E-09
202.53686	6.47198E-09
202.70967	6.47395E-09
202.88248	6.47594E-09
203.05530	6.47795E-09
203.22811	6.47997E-09
203.40092	6.48201E-09
203.57374	6.48406E-09
203.74655	6.48612E-09
203.91936	6.48816E-09
204.09218	6.49022E-09
204.26499	6.49226E-09
204.43780	6.49430E-09
204.61062	6.49633E-09
204.78343	6.49834E-09
204.95624	6.50034E-09
205.12905	6.50232E-09
205.30187	6.50428E-09
205.47468	6.50623E-09
205.64749	6.50816E-09
205.82031	6.51005E-09
205.99312	6.51192E-09
206.16593	6.51377E-09
206.33875	6.51557E-09
206.51156	6.51736E-09
206.68437	6.51912E-09
206.85718	6.52086E-09
207.03000	6.52257E-09
207.20281	6.52425E-09
207.37562	6.52590E-09
207.54844	6.52753E-09
207.72125	6.52915E-09
207.89406	6.53074E-09
208.06688	6.53231E-09
208.23969	6.53388E-09
208.41250	6.53540E-09
208.58531	6.53692E-09
208.75813	6.53843E-09
208.93094	6.53992E-09
209.10375	6.54142E-09
209.27657	6.54289E-09
209.44938	6.54437E-09
209.62219	6.54585E-09
209.79501	6.54733E-09
209.96782	6.54880E-09
210.14063	6.55028E-09
210.31344	6.55176E-09
210.48626	6.55326E-09
210.65907	6.55475E-09
210.83188	6.55626E-09
211.00470	6.55778E-09
211.17751	6.55932E-09
211.35032	6.56088E-09
211.52314	6.56246E-09
211.69595	6.56405E-09
211.86876	6.56566E-09
212.04157	6.56729E-09
212.21439	6.56896E-09
212.38720	6.57063E-09
212.56001	6.57233E-09
212.73283	6.57406E-09
212.90564	6.57581E-09
213.07845	6.57758E-09
213.25127	6.57938E-09
213.42408	6.58120E-09
213.59689	6.58303E-09
213.76971	6.58491E-09
213.94252	6.58680E-09
214.11533	6.58870E-09
214.28814	6.59064E-09
214.46096	6.59261E-09
214.63377	6.59460E-09
214.80658	6.59660E-09
214.97940	6.59861E-09
215.15221	6.60064E-09
215.32502	6.60269E-09
215.49784	6.60475E-09
215.67065	6.60682E-09
215.84346	6.60891E-09
216.01627	6.61101E-09
216.18909	6.61312E-09
216.36190	6.61522E-09
216.53471	6.61733E-09
216.70753	6.61945E-09
216.88034	6.62155E-09
217.05315	6.62366E-09
217.22597	6.62577E-09
217.39878	6.62787E-09
217.57159	6.62995E-09
217.74440	6.63204E-09
217.91722	6.63411E-09
218.09003	6.63619E-09
218.26284	6.63825E-09
218.43566	6.64029E-09
218.60847	6.64233E-09
218.78128	6.64435E-09
218.95410	6.64636E-09
219.12691	6.64835E-09
219.29972	6.65036E-09
219.47253	6.65234E-09
219.64535	6.65428E-09
219.81816	6.65622E-09
219.99097	6.65815E-09
220.16379	6.66008E-09
220.33660	6.66199E-09
220.50941	6.66388E-09
220.68223	6.66578E-09
220.85504	6.66767E-09
221.02785	6.66956E-09
221.20066	6.67145E-09
221.37348	6.67335E-09
221.54629	6.67525E-09
221.71910	6.67715E-09
221.89192	6.67907E-09
222.06473	6.68099E-09
222.23754	6.68293E-09
222.41036	6.68490E-09
222.58317	6.68687E-09
222.75598	6.68887E-09
222.92880	6.69092E-09
223.10161	6.69297E-09
223.27442	6.69506E-09
223.44723	6.69720E-09
223.62005	6.69936E-09
223.79286	6.70157E-09
223.96567	6.70383E-09
224.13849	6.70614E-09
224.31130	6.70848E-09
224.48411	6.71089E-09
224.65693	6.71335E-09
224.82974	6.71589E-09
225.00255	6.71847E-09
225.17536	6.72115E-09
225.34818	6.72389E-09
225.52099	6.72671E-09
225.69380	6.72960E-09
225.86662	6.73257E-09
226.03943	6.73563E-09
226.21224	6.73876E-09
226.38506	6.74199E-09
226.55787	6.74529E-09
226.73068	6.74869E-09
226.90349	6.75217E-09
227.07631	6.75575E-09
227.24912	6.75941E-09
227.42193	6.76317E-09
227.59475	6.76703E-09
227.76756	6.77097E-09
227.94037	6.77499E-09
228.11319	6.77913E-09
228.28600	6.78334E-09
228.45881	6.78767E-09
228.63162	6.79208E-09
228.80444	6.79659E-09
228.97725	6.80119E-09
229.15006	6.80586E-09
229.32288	6.81064E-09
229.49569	6.81551E-09
229.66850	6.82047E-09
229.84132	6.82551E-09
230.01413	6.83064E-09
230.18694	6.83584E-09
230.35975	6.84113E-09
230.53257	6.84648E-09
230.70538	6.85190E-09
230.87819	6.85740E-09
231.05101	6.86298E-09
231.22382	6.86862E-09
231.39663	6.87432E-09
231.56945	6.88009E-09
231.74226	6.88591E-09
231.91507	6.89180E-09
232.08789	6.89774E-09
232.26070	6.90372E-09
232.43351	6.90976E-09
232.60632	6.91583E-09
232.77914	6.92195E-09
232.95195	6.92812E-09
233.12476	6.93433E-09
233.29758	6.94057E-09
233.47039	6.94685E-09
233.64320	6.95315E-09
233.81602	6.95949E-09
233.98883	6.96586E-09
234.16164	6.97225E-09
234.33445	6.97867E-09
234.50727	6.98513E-09
234.68008	6.99159E-09
234.85289	6.99808E-09
235.02571	7.00459E-09
235.19852	7.01110E-09
235.37133	7.01764E-09
235.54415	7.02421E-09
235.71696	7.03079E-09
235.88977	7.03739E-09
236.06258	7.04402E-09
236.23540	7.05066E-09
236.40821	7.05732E-09
236.58102	7.06399E-09
236.75384	7.07071E-09
236.92665	7.07744E-09
237.09946	7.08419E-09
237.27228	7.09098E-09
237.44509	7.09779E-09
237.61790	7.10462E-09
237.79071	7.11147E-09
237.96353	7.11836E-09
238.13634	7.12529E-09
238.30915	7.13224E-09
238.48197	7.13921E-09
238.65478	7.14623E-09
238.82759	7.15328E-09
239.00041	7.16037E-09
239.17322	7.16750E-09
239.34603	7.17467E-09
239.51884	7.18189E-09
239.69166	7.18914E-09
239.86447	7.19644E-09
240.03728	7.20377E-09
240.21010	7.21114E-09
240.38291	7.21858E-09
240.55572	7.22606E-09
240.72854	7.23360E-09
240.90135	7.24118E-09
241.07416	7.24881E-09
241.24698	7.25647E-09
241.41979	7.26421E-09
241.59260	7.27195E-09
241.76541	7.27976E-09
241.93823	7.28762E-09
242.11104	7.29552E-09
242.28385	7.30346E-09
242.45667	7.31144E-09
242.62948	7.31946E-09
242.80229	7.32752E-09
242.97511	7.33560E-09
243.14792	7.34371E-09
243.32073	7.35187E-09
243.49354	7.36004E-09
243.66636	7.36824E-09
243.83917	7.37648E-09
244.01198	7.38471E-09
244.18480	7.39298E-09
244.35761	7.40125E-09
244.53042	7.40954E-09
244.70324	7.41784E-09
244.87605	7.42615E-09
245.04886	7.43445E-09
245.22167	7.44277E-09
245.39449	7.45104E-09
245.56730	7.45933E-09
245.74011	7.46758E-09
245.91293	7.47582E-09
246.08574	7.48404E-09
246.25855	7.49224E-09
246.43137	7.50039E-09
246.60418	7.50852E-09
246.77699	7.51661E-09
246.94980	7.52465E-09
247.12262	7.53266E-09
247.29543	7.54060E-09
247.46824	7.54851E-09
247.64106	7.55635E-09
247.81387	7.56415E-09
247.98668	7.57190E-09
248.15950	7.57957E-09
248.33231	7.58720E-09
248.50512	7.59475E-09
248.67794	7.60224E-09
248.85075	7.60966E-09
249.02356	7.61703E-09
249.19637	7.62435E-09
249.36919	7.63160E-09
249.54200	7.63879E-09
249.71481	7.64594E-09
249.88763	7.65300E-09
250.06044	7.66002E-09
250.23325	7.66699E-09
250.40607	7.67389E-09
250.57888	7.68075E-09
250.75169	7.68757E-09
250.92450	7.69433E-09
251.09732	7.70109E-09
251.27013	7.70779E-09
251.44294	7.71448E-09
251.61576	7.72113E-09
251.78857	7.72779E-09
251.96138	7.73441E-09
252.13420	7.74102E-09
252.30701	7.74765E-09
252.47982	7.75429E-09
252.65263	7.76094E-09
252.82545	7.76761E-09
252.99826	7.77430E-09
253.17107	7.78102E-09
253.34389	7.78779E-09
253.51670	7.79462E-09
253.68951	7.80149E-09
253.86233	7.80841E-09
254.03514	7.81541E-09
254.20795	7.82248E-09
254.38076	7.82963E-09
254.55358	7.83688E-09
254.72639	7.84420E-09
254.89920	7.85162E-09
255.07202	7.85918E-09
255.24483	7.86683E-09
255.41764	7.87462E-09
255.59046	7.88253E-09
255.76327	7.89058E-09
255.93608	7.89877E-09
256.10889	7.90711E-09
256.28171	7.91559E-09
256.45452	7.92420E-09
256.62733	7.93298E-09
256.80015	7.94191E-09
256.97296	7.95101E-09
257.14577	7.96029E-09
257.31859	7.96972E-09
257.49140	7.97931E-09
257.66421	7.98908E-09
257.83703	7.99902E-09
258.00984	8.00914E-09
258.18265	8.01942E-09
258.35546	8.02987E-09
258.52828	8.04049E-09
258.70109	8.05128E-09
258.87390	8.06225E-09
259.04672	8.07335E-09
259.21953	8.08464E-09
259.39234	8.09609E-09
259.56516	8.10770E-09
259.73797	8.11944E-09
259.91078	8.13135E-09
260.08359	8.14340E-09
260.25641	8.15559E-09
260.42922	8.16791E-09
260.60203	8.18034E-09
260.77485	8.19292E-09
260.94766	8.20560E-09
261.12047	8.21839E-09
261.29329	8.23127E-09
261.46610	8.24426E-09
261.63891	8.25733E-09
261.81172	8.27048E-09
261.98454	8.28369E-09
262.15735	8.29697E-09
262.33016	8.31032E-09
262.50298	8.32369E-09
262.67579	8.33715E-09
262.84860	8.35064E-09
263.02142	8.36416E-09
263.19423	8.37769E-09
263.36704	8.39125E-09
263.53985	8.40480E-09
263.71267	8.41835E-09
263.88548	8.43191E-09
264.05829	8.44545E-09
264.23111	8.45897E-09
264.40392	8.47248E-09
264.57673	8.48596E-09
264.74955	8.49943E-09
264.92236	8.51284E-09
265.09517	8.52624E-09
265.26798	8.53958E-09
265.44080	8.55287E-09
265.61361	8.56610E-09
265.78642	8.57930E-09
265.95924	8.59243E-09
266.13205	8.60551E-09
266.30486	8.61855E-09
266.47768	8.63154E-09
266.65049	8.64446E-09
266.82330	8.65733E-09
266.99612	8.67016E-09
267.16893	8.68291E-09
267.34174	8.69562E-09
267.51455	8.70828E-09
267.68737	8.72088E-09
267.86018	8.73346E-09
268.03299	8.74600E-09
268.20581	8.75850E-09
268.37862	8.77099E-09
268.55143	8.78345E-09
268.72425	8.79590E-09
268.89706	8.80833E-09
269.06987	8.82075E-09
269.24268	8.83316E-09
269.41550	8.84560E-09
269.58831	8.85800E-09
269.76112	8.87046E-09
269.93394	8.88293E-09
270.10675	8.89542E-09
270.27956	8.90795E-09
270.45238	8.92052E-09
270.62519	8.93314E-09
270.79800	8.94581E-09
270.97081	8.95852E-09
271.14363	8.97129E-09
271.31644	8.98415E-09
271.48925	8.99708E-09
271.66207	9.01007E-09
271.83488	9.02315E-09
272.00769	9.03631E-09
272.18051	9.04956E-09
272.35332	9.06290E-09
272.52613	9.07633E-09
272.69894	9.08987E-09
272.87176	9.10351E-09
273.04457	9.11726E-09
273.21738	9.13110E-09
273.39020	9.14505E-09
273.56301	9.15911E-09
273.73582	9.17325E-09
273.90864	9.18751E-09
274.08145	9.20186E-09
274.25426	9.21632E-09
274.42707	9.23085E-09
274.59989	9.24549E-09
274.77270	9.26021E-09
274.94551	9.27500E-09
275.11833	9.28990E-09
275.29114	9.30490E-09
275.46395	9.31993E-09
275.63677	9.33503E-09
275.80958	9.35019E-09
275.98239	9.36540E-09
276.15521	9.38064E-09
276.32802	9.39593E-09
276.50083	9.41125E-09
276.67364	9.42657E-09
276.84646	9.44190E-09
277.01927	9.45726E-09
277.19208	9.47259E-09
277.36490	9.48792E-09
277.53771	9.50321E-09
277.71052	9.51847E-09
277.88334	9.53366E-09
278.05615	9.54882E-09
278.22896	9.56391E-09
278.40177	9.57893E-09
278.57459	9.59387E-09
278.74740	9.60871E-09
278.92021	9.62345E-09
279.09303	9.63807E-09
279.26584	9.65260E-09
279.43865	9.66697E-09
279.61147	9.68123E-09
279.78428	9.69531E-09
279.95709	9.70928E-09
280.12990	9.72307E-09
280.30272	9.73673E-09
280.47553	9.75020E-09
280.64834	9.76352E-09
280.82116	9.77665E-09
280.99397	9.78962E-09
281.16678	9.80241E-09
281.33960	9.81502E-09
281.51241	9.82744E-09
281.68522	9.83965E-09
281.85803	9.85171E-09
282.03085	9.86357E-09
282.20366	9.87523E-09
282.37647	9.88672E-09
282.54929	9.89804E-09
282.72210	9.90917E-09
282.89491	9.92013E-09
283.06773	9.93093E-09
283.24054	9.94155E-09
283.41335	9.95202E-09
283.58616	9.96231E-09
283.75898	9.97249E-09
283.93179	9.98253E-09
284.10460	9.99243E-09
284.27742	1.00022E-08
284.45023	1.00119E-08
284.62304	1.00215E-08
284.79586	1.00309E-08
284.96867	1.00403E-08
285.14148	1.00496E-08
285.31430	1.00589E-08
285.48711	1.00681E-08
285.65992	1.00772E-08
285.83273	1.00863E-08
286.00555	1.00953E-08
286.17836	1.01044E-08
286.35117	1.01134E-08
286.52399	1.01224E-08
286.69680	1.01315E-08
286.86961	1.01405E-08
287.04243	1.01496E-08
287.21524	1.01587E-08
287.38805	1.01679E-08
287.56086	1.01771E-08
287.73368	1.01864E-08
287.90649	1.01957E-08
288.07930	1.02052E-08
288.25212	1.02147E-08
288.42493	1.02242E-08
288.59774	1.02339E-08
288.77056	1.02437E-08
288.94337	1.02535E-08
289.11618	1.02634E-08
289.28899	1.02735E-08
289.46181	1.02836E-08
289.63462	1.02939E-08
289.80743	1.03042E-08
289.98025	1.03146E-08
290.15306	1.03252E-08
290.32587	1.03358E-08
290.49869	1.03465E-08
290.67150	1.03574E-08
290.84431	1.03683E-08
291.01712	1.03792E-08
291.18994	1.03903E-08
291.36275	1.04014E-08
291.53556	1.04126E-08
291.70838	1.04238E-08
291.88119	1.04351E-08
292.05400	1.04464E-08
292.22682	1.04578E-08
292.39963	1.04691E-08
292.57244	1.04805E-08
292.74525	1.04919E-08
292.91807	1.05033E-08
293.09088	1.05147E-08
293.26369	1.05260E-08
293.43651	1.05373E-08
293.60932	1.05486E-08
293.78213	1.05598E-08
293.95495	1.05709E-08
294.12776	1.05820E-08
294.30057	1.05930E-08
294.47339	1.06038E-08
294.64620	1.06146E-08
294.81901	1.06252E-08
294.99182	1.06358E-08
295.16464	1.06462E-08
295.33745	1.06564E-08
295.51026	1.06665E-08
295.68308	1.06764E-08
295.85589	1.06862E-08
296.02870	1.06957E-08
296.20152	1.07052E-08
296.37433	1.07144E-08
296.54714	1.07234E-08
296.71995	1.07323E-08
296.89277	1.07409E-08
297.06558	1.07494E-08
297.23839	1.07576E-08
297.41121	1.07657E-08
297.58402	1.07735E-08
297.75683	1.07812E-08
297.92965	1.07886E-08
298.10246	1.07958E-08
298.27527	1.08029E-08
298.44808	1.08098E-08
298.62090	1.08165E-08
298.79371	1.08230E-08
298.96652	1.08293E-08
299.13934	1.08355E-08
299.31215	1.08415E-08
299.48496	1.08474E-08
299.65778	1.08531E-08
299.83059	1.08586E-08
300.00340	1.08641E-08
300.17621	1.08694E-08
300.34903	1.08746E-08
300.52184	1.08797E-08
300.69465	1.08847E-08
300.86747	1.08896E-08
301.04028	1.08944E-08
301.21309	1.08992E-08
301.38591	1.09040E-08
301.55872	1.09087E-08
301.73153	1.09133E-08
301.90434	1.09180E-08
302.07716	1.09226E-08
302.24997	1.09273E-08
302.42278	1.09320E-08
302.59560	1.09367E-08
302.76841	1.09414E-08
302.94122	1.09461E-08
303.11404	1.09509E-08
303.28685	1.09558E-08
303.45966	1.09607E-08
303.63248	1.09657E-08
303.80529	1.09708E-08
303.97810	1.09759E-08
304.15091	1.09812E-08
304.32373	1.09865E-08
304.49654	1.09919E-08
304.66935	1.09975E-08
304.84217	1.10031E-08
305.01498	1.10088E-08
305.18779	1.10147E-08
305.36061	1.10206E-08
305.53342	1.10267E-08
305.70623	1.10329E-08
305.87904	1.10392E-08
306.05186	1.10455E-08
306.22467	1.10520E-08
306.39748	1.10586E-08
306.57030	1.10653E-08
306.74311	1.10720E-08
306.91592	1.10789E-08
307.08874	1.10858E-08
307.26155	1.10928E-08
307.43436	1.10998E-08
307.60717	1.11070E-08
307.77999	1.11141E-08
307.95280	1.11213E-08
308.12561	1.11286E-08
308.29843	1.11358E-08
308.47124	1.11431E-08
308.64405	1.11504E-08
308.81687	1.11577E-08
308.98968	1.11650E-08
309.16249	1.11723E-08
309.33530	1.11795E-08
309.50812	1.11867E-08
309.68093	1.11939E-08
309.85374	1.12010E-08
310.02656	1.12081E-08
310.19937	1.12151E-08
310.37218	1.12220E-08
310.54500	1.12288E-08
310.71781	1.12355E-08
310.89062	1.12422E-08
311.06343	1.12487E-08
311.23625	1.12551E-08
311.40906	1.12615E-08
311.58187	1.12677E-08
311.75469	1.12738E-08
311.92750	1.12797E-08
312.10031	1.12856E-08
312.27313	1.12913E-08
312.44594	1.12969E-08
312.61875	1.13023E-08
312.79157	1.13076E-08
312.96438	1.13128E-08
313.13719	1.13179E-08
313.31000	1.13229E-08
313.48282	1.13278E-08
313.65563	1.13325E-08
313.82844	1.13372E-08
314.00126	1.13417E-08
314.17407	1.13461E-08
314.34688	1.13505E-08
314.51970	1.13548E-08
314.69251	1.13590E-08
314.86532	1.13631E-08
315.03813	1.13672E-08
315.21095	1.13713E-08
315.38376	1.13753E-08
315.55657	1.13793E-08
315.72939	1.13832E-08
315.90220	1.13872E-08
316.07501	1.13912E-08
316.24783	1.13952E-08
316.42064	1.13993E-08
316.59345	1.14034E-08
316.76626	1.14075E-08
316.93908	1.14117E-08
317.11189	1.14160E-08
317.28470	1.14204E-08
317.45752	1.14248E-08
317.63033	1.14294E-08
317.80314	1.14341E-08
317.97596	1.14390E-08
318.14877	1.14439E-08
318.32158	1.14491E-08
318.49439	1.14543E-08
318.66721	1.14597E-08
318.84002	1.14653E-08
319.01283	1.14711E-08
319.18565	1.14771E-08
319.35846	1.14832E-08
319.53127	1.14895E-08
319.70409	1.14960E-08
319.87690	1.15027E-08
320.04971	1.15096E-08
320.22252	1.15167E-08
320.39534	1.15240E-08
320.56815	1.15316E-08
320.74096	1.15393E-08
320.91378	1.15471E-08
321.08659	1.15552E-08
321.25940	1.15635E-08
321.43222	1.15719E-08
321.60503	1.15805E-08
321.77784	1.15894E-08
321.95066	1.15983E-08
322.12347	1.16075E-08
322.29628	1.16167E-08
322.46909	1.16261E-08
322.64191	1.16357E-08
322.81472	1.16453E-08
322.98753	1.16551E-08
323.16035	1.16651E-08
323.33316	1.16750E-08
323.50597	1.16851E-08
323.67879	1.16953E-08
323.85160	1.17055E-08
324.02441	1.17158E-08
324.19722	1.17261E-08
324.37004	1.17364E-08
324.54285	1.17467E-08
324.71566	1.17570E-08
324.88848	1.17673E-08
325.06129	1.17776E-08
325.23410	1.17879E-08
325.40692	1.17981E-08
325.57973	1.18082E-08
325.75254	1.18183E-08
325.92535	1.18283E-08
326.09817	1.18383E-08
326.27098	1.18481E-08
326.44379	1.18578E-08
326.61661	1.18674E-08
326.78942	1.18769E-08
326.96223	1.18863E-08
327.13505	1.18956E-08
327.30786	1.19048E-08
327.48067	1.19137E-08
327.65348	1.19226E-08
327.82630	1.19313E-08
327.99911	1.19399E-08
328.17192	1.19484E-08
328.34474	1.19568E-08
328.51755	1.19651E-08
328.69036	1.19732E-08
328.86318	1.19812E-08
329.03599	1.19891E-08
329.20880	1.19969E-08
329.38161	1.20046E-08
329.55443	1.20122E-08
329.72724	1.20198E-08
329.90005	1.20273E-08
330.07287	1.20347E-08
330.24568	1.20422E-08
330.41849	1.20495E-08
330.59131	1.20569E-08
330.76412	1.20642E-08
330.93693	1.20716E-08
331.10975	1.20790E-08
331.28256	1.20864E-08
331.45537	1.20939E-08
331.62818	1.21015E-08
331.80100	1.21092E-08
331.97381	1.21170E-08
332.14662	1.21249E-08
332.31944	1.21329E-08
332.49225	1.21411E-08
332.66506	1.21495E-08
332.83788	1.21580E-08
333.01069	1.21668E-08
333.18350	1.21757E-08
333.35631	1.21849E-08
333.52913	1.21943E-08
333.70194	1.22040E-08
333.87475	1.22140E-08
334.04757	1.22242E-08
334.22038	1.22347E-08
334.39319	1.22455E-08
334.56601	1.22566E-08
334.73882	1.22680E-08
334.91163	1.22798E-08
335.08444	1.22918E-08
335.25726	1.23042E-08
335.43007	1.23169E-08
335.60288	1.23299E-08
335.77570	1.23433E-08
335.94851	1.23570E-08
336.12132	1.23711E-08
336.29414	1.23854E-08
336.46695	1.24001E-08
336.63976	1.24151E-08
336.81257	1.24305E-08
336.98539	1.24461E-08
337.15820	1.24621E-08
337.33101	1.24783E-08
337.50383	1.24948E-08
337.67664	1.25116E-08
337.84945	1.25286E-08
338.02227	1.25459E-08
338.19508	1.25635E-08
338.36789	1.25812E-08
338.54070	1.25992E-08
338.71352	1.26173E-08
338.88633	1.26356E-08
339.05914	1.26541E-08
339.23196	1.26727E-08
339.40477	1.26914E-08
339.57758	1.27102E-08
339.75040	1.27291E-08
339.92321	1.27481E-08
340.09602	1.27671E-08
340.26884	1.27861E-08
340.44165	1.28051E-08
340.61446	1.28241E-08
340.78727	1.28432E-08
340.96009	1.28621E-08
341.13290	1.28810E-08
341.30571	1.28998E-08
341.47853	1.29186E-08
341.65134	1.29373E-08
341.82415	1.29558E-08
341.99697	1.29742E-08
342.16978	1.29925E-08
342.34259	1.30106E-08
342.51540	1.30285E-08
342.68822	1.30463E-08
342.86103	1.30640E-08
343.03384	1.30814E-08
343.20666	1.30987E-08
343.37947	1.31158E-08
343.55228	1.31328E-08
343.72510	1.31495E-08
343.89791	1.31661E-08
344.07072	1.31825E-08
344.24353	1.31988E-08
344.41635	1.32149E-08
344.58916	1.32309E-08
344.76197	1.32468E-08
344.93479	1.32626E-08
345.10760	1.32782E-08
345.28041	1.32938E-08
345.45323	1.33093E-08
345.62604	1.33248E-08
345.79885	1.33403E-08
345.97166	1.33557E-08
346.14448	1.33712E-08
346.31729	1.33867E-08
346.49010	1.34022E-08
346.66292	1.34179E-08
346.83573	1.34337E-08
347.00854	1.34497E-08
347.18136	1.34658E-08
347.35417	1.34820E-08
347.52698	1.34986E-08
347.69979	1.35153E-08
347.87261	1.35324E-08
348.04542	1.35497E-08
348.21823	1.35674E-08
348.39105	1.35855E-08
348.56386	1.36039E-08
348.73667	1.36227E-08
348.90949	1.36420E-08
349.08230	1.36617E-08
349.25511	1.36819E-08
349.42793	1.37026E-08
349.60074	1.37238E-08
349.77355	1.37455E-08
349.94636	1.37677E-08
350.11918	1.37906E-08
350.29199	1.38140E-08
350.46480	1.38381E-08
350.63762	1.38627E-08
350.81043	1.38879E-08
350.98324	1.39137E-08
351.15606	1.39402E-08
351.32887	1.39672E-08
351.50168	1.39950E-08
351.67449	1.40233E-08
351.84731	1.40522E-08
352.02012	1.40817E-08
352.19293	1.41119E-08
352.36575	1.41426E-08
352.53856	1.41739E-08
352.71137	1.42058E-08
352.88419	1.42382E-08
353.05700	1.42711E-08
353.22981	1.43046E-08
353.40262	1.43385E-08
353.57544	1.43729E-08
353.74825	1.44078E-08
353.92106	1.44430E-08
354.09388	1.44786E-08
354.26669	1.45145E-08
354.43950	1.45507E-08
354.61232	1.45872E-08
354.78513	1.46239E-08
354.95794	1.46608E-08
355.13075	1.46979E-08
355.30357	1.47350E-08
355.47638	1.47723E-08
355.64919	1.48095E-08
355.82201	1.48468E-08
355.99482	1.48840E-08
356.16763	1.49212E-08
356.34045	1.49582E-08
356.51326	1.49950E-08
356.68607	1.50316E-08
356.85888	1.50680E-08
357.03170	1.51041E-08
357.20451	1.51399E-08
357.37732	1.51754E-08
357.55014	1.52105E-08
357.72295	1.52452E-08
357.89576	1.52795E-08
358.06858	1.53133E-08
358.24139	1.53467E-08
358.41420	1.53796E-08
358.58702	1.54120E-08
358.75983	1.54440E-08
358.93264	1.54754E-08
359.10545	1.55063E-08
359.27827	1.55368E-08
359.45108	1.55668E-08
359.62389	1.55963E-08
359.79671	1.56254E-08
359.96952	1.56541E-08
360.14233	1.56824E-08
360.31515	1.57103E-08
360.48796	1.57379E-08
360.66077	1.57651E-08
360.83358	1.57921E-08
361.00640	1.58190E-08
361.17921	1.58456E-08
361.35202	1.58722E-08
361.52484	1.58988E-08
361.69765	1.59254E-08
361.87046	1.59521E-08
362.04328	1.59789E-08
362.21609	1.60061E-08
362.38890	1.60335E-08
362.56171	1.60613E-08
362.73453	1.60895E-08
362.90734	1.61184E-08
363.08015	1.61479E-08
363.25297	1.61781E-08
363.42578	1.62092E-08
363.59859	1.62412E-08
363.77141	1.62742E-08
363.94422	1.63083E-08
364.11703	1.63435E-08
364.28984	1.63801E-08
364.46266	1.64181E-08
364.63547	1.64575E-08
364.80828	1.64984E-08
364.98110	1.65410E-08
365.15391	1.65853E-08
365.32672	1.66315E-08
365.49954	1.66796E-08
365.67235	1.67296E-08
365.84516	1.67817E-08
366.01797	1.68359E-08
366.19079	1.68925E-08
366.36360	1.69512E-08
366.53641	1.70123E-08
366.70923	1.70759E-08
366.88204	1.71419E-08
367.05485	1.72106E-08
367.22767	1.72818E-08
367.40048	1.73557E-08
367.57329	1.74322E-08
367.74611	1.75116E-08
367.91892	1.75937E-08
368.09173	1.76786E-08
368.26454	1.77663E-08
368.43736	1.78569E-08
368.61017	1.79503E-08
368.78298	1.80465E-08
368.95580	1.81456E-08
369.12861	1.82475E-08
369.30142	1.83521E-08
369.47424	1.84595E-08
369.64705	1.85696E-08
369.81986	1.86824E-08
369.99267	1.87977E-08
370.16549	1.89154E-08
370.33830	1.90356E-08
370.51111	1.91580E-08
370.68393	1.92826E-08
370.85674	1.94093E-08
371.02955	1.95377E-08
371.20237	1.96679E-08
371.37518	1.97996E-08
371.54799	1.99326E-08
371.72080	2.00668E-08
371.89362	2.02019E-08
372.06643	2.03377E-08
372.23924	2.04738E-08
372.41206	2.06102E-08
372.58487	2.07464E-08
372.75768	2.08821E-08
372.93050	2.10170E-08
373.10331	2.11510E-08
373.27612	2.12835E-08
373.44893	2.14142E-08
373.62175	2.15429E-08
373.79456	2.16690E-08
373.96737	2.17924E-08
374.14019	2.19126E-08
374.31300	2.20291E-08
374.48581	2.21416E-08
374.65863	2.22500E-08
374.83144	2.23535E-08
375.00425	2.24521E-08
375.17706	2.25453E-08
375.34988	2.26327E-08
375.52269	2.27141E-08
375.69550	2.27891E-08
375.86832	2.28575E-08
376.04113	2.29191E-08
376.21394	2.29734E-08
376.38676	2.30205E-08
376.55957	2.30601E-08
376.73238	2.30920E-08
376.90520	2.31161E-08
377.07801	2.31325E-08
377.25082	2.31409E-08
377.42363	2.31413E-08
377.59645	2.31340E-08
377.76926	2.31188E-08
377.94207	2.30959E-08
378.11489	2.30654E-08
378.28770	2.30275E-08
378.46051	2.29823E-08
378.63333	2.29301E-08
378.80614	2.28711E-08
378.97895	2.28056E-08
379.15176	2.27338E-08
379.32458	2.26561E-08
379.49739	2.25728E-08
379.67020	2.24844E-08
379.84302	2.23910E-08
380.01583	2.22931E-08
380.18864	2.21911E-08
380.36146	2.20853E-08
380.53427	2.19762E-08
380.70708	2.18641E-08
380.87989	2.17493E-08
381.05271	2.16323E-08
381.22552	2.15134E-08
381.39833	2.13931E-08
381.57115	2.12716E-08
381.74396	2.11493E-08
381.91677	2.10265E-08
382.08959	2.09036E-08
382.26240	2.07808E-08
382.43521	2.06584E-08
382.60802	2.05367E-08
382.78084	2.04161E-08
382.95365	2.02967E-08
383.12646	2.01788E-08
383.29928	2.00625E-08
383.47209	1.99481E-08
383.64490	1.98359E-08
383.81772	1.97259E-08
383.99053	1.96183E-08
384.16334	1.95133E-08
384.33616	1.94110E-08
384.50897	1.93115E-08
384.68178	1.92149E-08
384.85459	1.91214E-08
385.02741	1.90309E-08
385.20022	1.89437E-08
385.37303	1.88597E-08
385.54585	1.87790E-08
385.71866	1.87016E-08
385.89147	1.86277E-08
386.06429	1.85571E-08
386.23710	1.84901E-08
386.40991	1.84264E-08
386.58272	1.83662E-08
386.75554	1.83095E-08
386.92835	1.82561E-08
387.10116	1.82061E-08
387.27398	1.81595E-08
387.44679	1.81164E-08
387.61960	1.80765E-08
387.79242	1.80398E-08
387.96523	1.80064E-08
388.13804	1.79762E-08
388.31085	1.79491E-08
388.48367	1.79251E-08
388.65648	1.79041E-08
388.82929	1.78860E-08
389.00211	1.78707E-08
389.17492	1.78583E-08
389.34773	1.78485E-08
389.52055	1.78413E-08
389.69336	1.78367E-08
389.86617	1.78346E-08
390.03898	1.78347E-08
390.21180	1.78371E-08
390.38461	1.78417E-08
390.55742	1.78483E-08
390.73024	1.78568E-08
390.90305	1.78672E-08
391.07586	1.78793E-08
391.24868	1.78930E-08
391.42149	1.79082E-08
391.59430	1.79249E-08
391.76711	1.79428E-08
391.93993	1.79619E-08
392.11274	1.79820E-08
392.28555	1.80031E-08
392.45837	1.80250E-08
392.63118	1.80477E-08
392.80399	1.80709E-08
392.97681	1.80946E-08
393.14962	1.81188E-08
393.32243	1.81432E-08
393.49525	1.81677E-08
393.66806	1.81923E-08
393.84087	1.82170E-08
394.01368	1.82414E-08
394.18650	1.82657E-08
394.35931	1.82895E-08
394.53212	1.83131E-08
394.70494	1.83361E-08
394.87775	1.83585E-08
395.05056	1.83803E-08
395.22338	1.84015E-08
395.39619	1.84219E-08
395.56900	1.84414E-08
395.74181	1.84601E-08
395.91463	1.84779E-08
396.08744	1.84946E-08
396.26025	1.85105E-08
396.43307	1.85254E-08
396.60588	1.85392E-08
396.77869	1.85520E-08
396.95151	1.85637E-08
397.12432	1.85744E-08
397.29713	1.85841E-08
397.46994	1.85927E-08
397.64276	1.86003E-08
397.81557	1.86069E-08
397.98838	1.86126E-08
398.16120	1.86174E-08
398.33401	1.86213E-08
398.50682	1.86243E-08
398.67964	1.86266E-08
398.85245	1.86280E-08
399.02526	1.86288E-08
399.19807	1.86290E-08
399.37089	1.86285E-08
399.54370	1.86276E-08
399.71651	1.86262E-08
399.88933	1.86244E-08
400.06214	1.86223E-08
400.23495	1.86200E-08
400.40777	1.86175E-08
400.58058	1.86148E-08
400.75339	1.86122E-08
400.92620	1.86095E-08
401.09902	1.86070E-08
401.27183	1.86046E-08
401.44464	1.86025E-08
401.61746	1.86007E-08
401.79027	1.85992E-08
401.96308	1.85981E-08
402.13590	1.85976E-08
402.30871	1.85976E-08
402.48152	1.85982E-08
402.65434	1.85994E-08
402.82715	1.86013E-08
402.99996	1.86040E-08
403.17277	1.86075E-08
403.34559	1.86119E-08
403.51840	1.86171E-08
403.69121	1.86232E-08
403.86403	1.86304E-08
404.03684	1.86385E-08
404.20965	1.86475E-08
404.38247	1.86577E-08
404.55528	1.86688E-08
404.72809	1.86810E-08
404.90090	1.86943E-08
405.07372	1.87086E-08
405.24653	1.87241E-08
405.41934	1.87406E-08
405.59216	1.87582E-08
405.76497	1.87769E-08
405.93778	1.87966E-08
406.11060	1.88175E-08
406.28341	1.88393E-08
406.45622	1.88622E-08
406.62903	1.88861E-08
406.80185	1.89109E-08
406.97466	1.89368E-08
407.14747	1.89635E-08
407.32029	1.89912E-08
407.49310	1.90197E-08
407.66591	1.90490E-08
407.83873	1.90791E-08
408.01154	1.91100E-08
408.18435	1.91416E-08
408.35716	1.91738E-08
408.52998	1.92066E-08
408.70279	1.92400E-08
408.87560	1.92739E-08
409.04842	1.93083E-08
409.22123	1.93432E-08
409.39404	1.93783E-08
409.56686	1.94138E-08
409.73967	1.94495E-08
409.91248	1.94855E-08
410.08529	1.95216E-08
410.25811	1.95579E-08
410.43092	1.95942E-08
410.60373	1.96305E-08
410.77655	1.96668E-08
410.94936	1.97030E-08
411.12217	1.97391E-08
411.29499	1.97750E-08
411.46780	1.98106E-08
411.64061	1.98460E-08
411.81343	1.98811E-08
411.98624	1.99159E-08
412.15905	1.99503E-08
412.33186	1.99842E-08
412.50468	2.00178E-08
412.67749	2.00509E-08
412.85030	2.00836E-08
413.02312	2.01156E-08
413.19593	2.01472E-08
413.36874	2.01783E-08
413.54156	2.02087E-08
413.71437	2.02386E-08
413.88718	2.02679E-08
414.05999	2.02966E-08
414.23281	2.03248E-08
414.40562	2.03524E-08
414.57843	2.03794E-08
414.75125	2.04058E-08
414.92406	2.04317E-08
415.09687	2.04571E-08
415.26969	2.04819E-08
415.44250	2.05062E-08
415.61531	2.05301E-08
415.78812	2.05535E-08
415.96094	2.05764E-08
416.13375	2.05991E-08
416.30656	2.06213E-08
416.47938	2.06433E-08
416.65219	2.06649E-08
416.82500	2.06863E-08
416.99782	2.07076E-08
417.17063	2.07286E-08
417.34344	2.07496E-08
417.51625	2.07704E-08
417.68907	2.07912E-08
417.86188	2.08121E-08
418.03469	2.08330E-08
418.20751	2.08541E-08
418.38032	2.08754E-08
418.55313	2.08969E-08
418.72595	2.09186E-08
418.89876	2.09407E-08
419.07157	2.09633E-08
419.24438	2.09861E-08
419.41720	2.10096E-08
419.59001	2.10336E-08
419.76282	2.10582E-08
419.93564	2.10834E-08
420.10845	2.11093E-08
420.28126	2.11359E-08
420.45408	2.11634E-08
420.62689	2.11917E-08
420.79970	2.12209E-08
420.97252	2.12510E-08
421.14533	2.12821E-08
421.31814	2.13143E-08
421.49095	2.13475E-08
421.66377	2.13818E-08
421.83658	2.14173E-08
422.00939	2.14539E-08
422.18221	2.14919E-08
422.35502	2.15310E-08
422.52783	2.15715E-08
422.70065	2.16132E-08
422.87346	2.16564E-08
423.04627	2.17010E-08
423.21908	2.17468E-08
423.39190	2.17942E-08
423.56471	2.18431E-08
423.73752	2.18933E-08
423.91034	2.19452E-08
424.08315	2.19985E-08
424.25596	2.20533E-08
424.42878	2.21097E-08
424.60159	2.21676E-08
424.77440	2.22271E-08
424.94721	2.22880E-08
425.12003	2.23506E-08
425.29284	2.24147E-08
425.46565	2.24803E-08
425.63847	2.25473E-08
425.81128	2.26159E-08
425.98409	2.26859E-08
426.15691	2.27574E-08
426.32972	2.28304E-08
426.50253	2.29046E-08
426.67534	2.29802E-08
426.84816	2.30571E-08
427.02097	2.31353E-08
427.19378	2.32146E-08
427.36660	2.32952E-08
427.53941	2.33768E-08
427.71222	2.34594E-08
427.88504	2.35430E-08
428.05785	2.36275E-08
428.23066	2.37127E-08
428.40347	2.37986E-08
428.57629	2.38852E-08
428.74910	2.39722E-08
428.92191	2.40596E-08
429.09473	2.41473E-08
429.26754	2.42351E-08
429.44035	2.43229E-08
429.61317	2.44107E-08
429.78598	2.44982E-08
429.95879	2.45854E-08
430.13161	2.46720E-08
430.30442	2.47579E-08
430.47723	2.48430E-08
430.65004	2.49270E-08
430.82286	2.50098E-08
430.99567	2.50913E-08
431.16848	2.51712E-08
431.34130	2.52494E-08
431.51411	2.53257E-08
431.68692	2.53999E-08
431.85974	2.54718E-08
432.03255	2.55412E-08
432.20536	2.56078E-08
432.37817	2.56717E-08
432.55099	2.57324E-08
432.72380	2.57899E-08
432.89661	2.58440E-08
433.06943	2.58944E-08
433.24224	2.59410E-08
433.41505	2.59836E-08
433.58787	2.60220E-08
433.76068	2.60562E-08
433.93349	2.60858E-08
434.10630	2.61109E-08
434.27912	2.61313E-08
434.45193	2.61467E-08
434.62474	2.61573E-08
434.79756	2.61628E-08
434.97037	2.61631E-08
435.14318	2.61583E-08
435.31600	2.61482E-08
435.48881	2.61328E-08
435.66162	2.61122E-08
435.83443	2.60863E-08
436.00725	2.60552E-08
436.18006	2.60188E-08
436.35287	2.59773E-08
436.52569	2.59306E-08
436.69850	2.58790E-08
436.87131	2.58224E-08
437.04413	2.57612E-08
437.21694	2.56953E-08
437.38975	2.56249E-08
437.56256	2.55502E-08
437.73538	2.54713E-08
437.90819	2.53885E-08
438.08100	2.53019E-08
438.25382	2.52119E-08
438.42663	2.51184E-08
438.59944	2.50219E-08
438.77226	2.49227E-08
438.94507	2.48208E-08
439.11788	2.47166E-08
439.29070	2.46102E-08
439.46351	2.45020E-08
439.63632	2.43923E-08
439.80913	2.42812E-08
439.98195	2.41691E-08
440.15476	2.40561E-08
440.32757	2.39426E-08
440.50039	2.38287E-08
440.67320	2.37148E-08
440.84601	2.36009E-08
441.01883	2.34875E-08
441.19164	2.33747E-08
441.36445	2.32627E-08
441.53726	2.31517E-08
441.71008	2.30420E-08
441.88289	2.29338E-08
442.05570	2.28273E-08
442.22852	2.27225E-08
442.40133	2.26197E-08
442.57414	2.25191E-08
442.74696	2.24209E-08
442.91977	2.23251E-08
443.09258	2.22319E-08
443.26539	2.21415E-08
443.43821	2.20539E-08
443.61102	2.19694E-08
443.78383	2.18880E-08
443.95665	2.18099E-08
444.12946	2.17350E-08
444.30227	2.16636E-08
444.47509	2.15957E-08
444.64790	2.15314E-08
444.82071	2.14707E-08
444.99352	2.14137E-08
445.16634	2.13606E-08
445.33915	2.13112E-08
445.51196	2.12658E-08
445.68478	2.12242E-08
445.85759	2.11866E-08
446.03040	2.11531E-08
446.20322	2.11235E-08
446.37603	2.10980E-08
446.54884	2.10765E-08
446.72165	2.10591E-08
446.89447	2.10457E-08
447.06728	2.10365E-08
447.24009	2.10313E-08
447.41291	2.10301E-08
447.58572	2.10330E-08
447.75853	2.10399E-08
447.93135	2.10508E-08
448.10416	2.10657E-08
448.27697	2.10846E-08
448.44979	2.11074E-08
448.62260	2.11341E-08
448.79541	2.11645E-08
448.96822	2.11986E-08
449.14104	2.12366E-08
449.31385	2.12781E-08
449.48666	2.13232E-08
449.65948	2.13718E-08
449.83229	2.14238E-08
450.00510	2.14791E-08
450.17792	2.15377E-08
450.35073	2.15992E-08
450.52354	2.16639E-08
450.69635	2.17314E-08
450.86917	2.18017E-08
451.04198	2.18746E-08
451.21479	2.19501E-08
451.38761	2.20280E-08
451.56042	2.21080E-08
451.73323	2.21901E-08
451.90605	2.22741E-08
452.07886	2.23599E-08
452.25167	2.24473E-08
452.42448	2.25360E-08
452.59730	2.26259E-08
452.77011	2.27168E-08
452.94292	2.28086E-08
453.11574	2.29010E-08
453.28855	2.29938E-08
453.46136	2.30869E-08
453.63418	2.31800E-08
453.80699	2.32729E-08
453.97980	2.33653E-08
454.15261	2.34572E-08
454.32543	2.35482E-08
454.49824	2.36383E-08
454.67105	2.37271E-08
454.84387	2.38145E-08
455.01668	2.39002E-08
455.18949	2.39841E-08
455.36231	2.40660E-08
455.53512	2.41457E-08
455.70793	2.42231E-08
455.88074	2.42980E-08
456.05356	2.43701E-08
456.22637	2.44396E-08
456.39918	2.45060E-08
456.57200	2.45694E-08
456.74481	2.46296E-08
456.91762	2.46865E-08
457.09044	2.47401E-08
457.26325	2.47903E-08
457.43606	2.48370E-08
457.60888	2.48803E-08
457.78169	2.49200E-08
457.95450	2.49562E-08
458.12731	2.49891E-08
458.30013	2.50184E-08
458.47294	2.50443E-08
458.64575	2.50668E-08
458.81857	2.50861E-08
458.99138	2.51021E-08
459.16419	2.51150E-08
459.33701	2.51248E-08
459.50982	2.51318E-08
459.68263	2.51361E-08
459.85544	2.51377E-08
460.02826	2.51368E-08
460.20107	2.51337E-08
460.37388	2.51283E-08
460.54670	2.51209E-08
460.71951	2.51117E-08
460.89232	2.51008E-08
461.06514	2.50885E-08
461.23795	2.50748E-08
461.41076	2.50600E-08
461.58357	2.50443E-08
461.75639	2.50279E-08
461.92920	2.50108E-08
462.10201	2.49933E-08
462.27483	2.49756E-08
462.44764	2.49578E-08
462.62045	2.49401E-08
462.79327	2.49228E-08
462.96608	2.49058E-08
463.13889	2.48895E-08
463.31170	2.48739E-08
463.48452	2.48591E-08
463.65733	2.48453E-08
463.83014	2.48328E-08
464.00296	2.48214E-08
464.17577	2.48116E-08
464.34858	2.48031E-08
464.52140	2.47963E-08
464.69421	2.47912E-08
464.86702	2.47879E-08
465.03983	2.47864E-08
465.21265	2.47869E-08
465.38546	2.47894E-08
465.55827	2.47939E-08
465.73109	2.48005E-08
465.90390	2.48093E-08
466.07671	2.48202E-08
466.24953	2.48334E-08
466.42234	2.48489E-08
466.59515	2.48665E-08
466.76797	2.48864E-08
466.94078	2.49086E-08
467.11359	2.49330E-08
467.28640	2.49597E-08
467.45922	2.49886E-08
467.63203	2.50196E-08
467.80484	2.50528E-08
467.97766	2.50880E-08
468.15047	2.51255E-08
468.32328	2.51649E-08
468.49610	2.52061E-08
468.66891	2.52494E-08
468.84172	2.52945E-08
469.01453	2.53413E-08
469.18735	2.53898E-08
469.36016	2.54400E-08
469.53297	2.54917E-08
469.70579	2.55448E-08
469.87860	2.55993E-08
470.05141	2.56551E-08
470.22423	2.57120E-08
470.39704	2.57700E-08
470.56985	2.58290E-08
470.74266	2.58889E-08
470.91548	2.59495E-08
471.08829	2.60109E-08
471.26110	2.60728E-08
471.43392	2.61352E-08
471.60673	2.61981E-08
471.77954	2.62612E-08
471.95236	2.63247E-08
472.12517	2.63882E-08
472.29798	2.64517E-08
472.47079	2.65153E-08
472.64361	2.65787E-08
472.81642	2.66419E-08
472.98923	2.67049E-08
473.16205	2.67675E-08
473.33486	2.68297E-08
473.50767	2.68916E-08
473.68049	2.69529E-08
473.85330	2.70136E-08
474.02611	2.70737E-08
474.19892	2.71332E-08
474.37174	2.71920E-08
474.54455	2.72503E-08
474.71736	2.73078E-08
474.89018	2.73647E-08
475.06299	2.74208E-08
475.23580	2.74763E-08
475.40862	2.75311E-08
475.58143	2.75852E-08
475.75424	2.76387E-08
475.92706	2.76916E-08
476.09987	2.77438E-08
476.27268	2.77956E-08
476.44549	2.78469E-08
476.61831	2.78977E-08
476.79112	2.79481E-08
476.96393	2.79981E-08
477.13675	2.80479E-08
477.30956	2.80974E-08
477.48237	2.81467E-08
477.65519	2.81959E-08
477.82800	2.82451E-08
478.00081	2.82942E-08
478.17362	2.83436E-08
478.34644	2.83930E-08
478.51925	2.84427E-08
478.69206	2.84926E-08
478.86488	2.85429E-08
479.03769	2.85936E-08
479.21050	2.86448E-08
479.38332	2.86966E-08
479.55613	2.87490E-08
479.72894	2.88020E-08
479.90175	2.88556E-08
480.07457	2.89101E-08
480.24738	2.89653E-08
480.42019	2.90214E-08
480.59301	2.90783E-08
480.76582	2.91361E-08
480.93863	2.91949E-08
481.11145	2.92545E-08
481.28426	2.93151E-08
481.45707	2.93768E-08
481.62988	2.94394E-08
481.80270	2.95029E-08
481.97551	2.95674E-08
482.14832	2.96328E-08
482.32114	2.96992E-08
482.49395	2.97665E-08
482.66676	2.98346E-08
482.83958	2.99035E-08
483.01239	2.99733E-08
483.18520	3.00437E-08
483.35801	3.01149E-08
483.53083	3.01866E-08
483.70364	3.02591E-08
483.87645	3.03319E-08
484.04927	3.04052E-08
484.22208	3.04789E-08
484.39489	3.05529E-08
484.56771	3.06271E-08
484.74052	3.07014E-08
484.91333	3.07757E-08
485.08615	3.08500E-08
485.25896	3.09241E-08
485.43177	3.09980E-08
485.60458	3.10715E-08
485.77740	3.11447E-08
485.95021	3.12173E-08
486.12302	3.12893E-08
486.29584	3.13607E-08
486.46865	3.14313E-08
486.64146	3.15011E-08
486.81428	3.15700E-08
486.98709	3.16379E-08
487.15990	3.17048E-08
487.33271	3.17706E-08
487.50553	3.18352E-08
487.67834	3.18986E-08
487.85115	3.19609E-08
488.02397	3.20218E-08
488.19678	3.20814E-08
488.36959	3.21397E-08
488.54241	3.21968E-08
488.71522	3.22525E-08
488.88803	3.23069E-08
489.06084	3.23600E-08
489.23366	3.24119E-08
489.40647	3.24627E-08
489.57928	3.25123E-08
489.75210	3.25607E-08
489.92491	3.26083E-08
490.09772	3.26549E-08
490.27054	3.27006E-08
490.44335	3.27455E-08
490.61616	3.27898E-08
490.78897	3.28337E-08
490.96179	3.28771E-08
491.13460	3.29201E-08
491.30741	3.29630E-08
491.48023	3.30059E-08
491.65304	3.30488E-08
491.82585	3.30922E-08
491.99867	3.31358E-08
492.17148	3.31800E-08
492.34429	3.32250E-08
492.51710	3.32709E-08
492.68992	3.33178E-08
492.86273	3.33658E-08
493.03554	3.34152E-08
493.20836	3.34662E-08
493.38117	3.35188E-08
493.55398	3.35733E-08
493.72680	3.36298E-08
493.89961	3.36882E-08
494.07242	3.37491E-08
494.24524	3.38124E-08
494.41805	3.38782E-08
494.59086	3.39468E-08
494.76367	3.40181E-08
494.93649	3.40923E-08
495.10930	3.41696E-08
495.28211	3.42501E-08
495.45493	3.43338E-08
495.62774	3.44209E-08
495.80055	3.45113E-08
495.97337	3.46051E-08
496.14618	3.47025E-08
496.31899	3.48036E-08
496.49180	3.49080E-08
496.66462	3.50163E-08
496.83743	3.51280E-08
497.01024	3.52434E-08
497.18306	3.53623E-08
497.35587	3.54846E-08
497.52868	3.56105E-08
497.70150	3.57398E-08
497.87431	3.58722E-08
498.04712	3.60080E-08
498.21993	3.61467E-08
498.39275	3.62884E-08
498.56556	3.64328E-08
498.73837	3.65798E-08
498.91119	3.67292E-08
499.08400	3.68807E-08
499.25681	3.70342E-08
499.42963	3.71892E-08
499.60244	3.73457E-08
499.77525	3.75031E-08
499.94806	3.76615E-08
500.12088	3.78202E-08
500.29369	3.79789E-08
500.46650	3.81374E-08
500.63932	3.82952E-08
500.81213	3.84520E-08
500.98494	3.86073E-08
501.15776	3.87607E-08
501.33057	3.89118E-08
501.50338	3.90600E-08
501.67619	3.92052E-08
501.84901	3.93464E-08
502.02182	3.94837E-08
502.19463	3.96163E-08
502.36745	3.97440E-08
502.54026	3.98661E-08
502.71307	3.99822E-08
502.88589	4.00920E-08
503.05870	4.01950E-08
503.23151	4.02908E-08
503.40433	4.03792E-08
503.57714	4.04596E-08
503.74995	4.05317E-08
503.92276	4.05955E-08
504.09558	4.06504E-08
504.26839	4.06962E-08
504.44120	4.07327E-08
504.61402	4.07599E-08
504.78683	4.07777E-08
504.95964	4.07859E-08
505.13246	4.07845E-08
505.30527	4.07733E-08
505.47808	4.07525E-08
505.65089	4.07222E-08
505.82371	4.06827E-08
505.99652	4.06338E-08
506.16933	4.05760E-08
506.34215	4.05094E-08
506.51496	4.04343E-08
506.68777	4.03509E-08
506.86059	4.02598E-08
507.03340	4.01612E-08
507.20621	4.00553E-08
507.37902	3.99430E-08
507.55184	3.98244E-08
507.72465	3.96999E-08
507.89746	3.95702E-08
508.07028	3.94356E-08
508.24309	3.92968E-08
508.41590	3.91542E-08
508.58872	3.90081E-08
508.76153	3.88593E-08
508.93434	3.87080E-08
509.10715	3.85549E-08
509.27997	3.84005E-08
509.45278	3.82453E-08
509.62559	3.80896E-08
509.79841	3.79340E-08
509.97122	3.77789E-08
510.14403	3.76246E-08
510.31685	3.74718E-08
510.48966	3.73206E-08
510.66247	3.71715E-08
510.83529	3.70250E-08
511.00810	3.68814E-08
511.18091	3.67409E-08
511.35372	3.66039E-08
511.52654	3.64706E-08
511.69935	3.63414E-08
511.87216	3.62166E-08
512.04498	3.60963E-08
512.21779	3.59808E-08
512.39060	3.58702E-08
512.56342	3.57647E-08
512.73623	3.56648E-08
512.90904	3.55702E-08
513.08185	3.54812E-08
513.25467	3.53979E-08
513.42748	3.53206E-08
513.60029	3.52491E-08
513.77311	3.51837E-08
513.94592	3.51243E-08
514.11873	3.50710E-08
514.29155	3.50238E-08
514.46436	3.49828E-08
514.63717	3.49480E-08
514.80998	3.49194E-08
514.98280	3.48968E-08
515.15561	3.48804E-08
515.32842	3.48700E-08
515.50124	3.48657E-08
515.67405	3.48673E-08
515.84686	3.48746E-08
516.01968	3.48878E-08
516.19249	3.49066E-08
516.36530	3.49310E-08
516.53811	3.49607E-08
516.71093	3.49958E-08
516.88374	3.50361E-08
517.05655	3.50812E-08
517.22937	3.51312E-08
517.40218	3.51859E-08
517.57499	3.52450E-08
517.74781	3.53084E-08
517.92062	3.53757E-08
518.09343	3.54469E-08
518.26624	3.55217E-08
518.43906	3.55998E-08
518.61187	3.56811E-08
518.78468	3.57652E-08
518.95750	3.58520E-08
519.13031	3.59411E-08
519.30312	3.60323E-08
519.47594	3.61254E-08
519.64875	3.62200E-08
519.82156	3.63158E-08
519.99438	3.64125E-08
520.16719	3.65100E-08
520.34000	3.66079E-08
520.51281	3.67059E-08
520.68563	3.68037E-08
520.85844	3.69010E-08
521.03125	3.69976E-08
521.20407	3.70932E-08
521.37688	3.71873E-08
521.54969	3.72801E-08
521.72251	3.73709E-08
521.89532	3.74596E-08
522.06813	3.75461E-08
522.24094	3.76299E-08
522.41376	3.77111E-08
522.58657	3.77892E-08
522.75938	3.78642E-08
522.93220	3.79360E-08
523.10501	3.80042E-08
523.27782	3.80689E-08
523.45064	3.81297E-08
523.62345	3.81868E-08
523.79626	3.82399E-08
523.96907	3.82889E-08
524.14189	3.83341E-08
524.31470	3.83751E-08
524.48751	3.84119E-08
524.66033	3.84446E-08
524.83314	3.84735E-08
525.00595	3.84982E-08
525.17877	3.85189E-08
525.35158	3.85357E-08
525.52439	3.85487E-08
525.69720	3.85580E-08
525.87002	3.85638E-08
526.04283	3.85661E-08
526.21564	3.85651E-08
526.38846	3.85609E-08
526.56127	3.85537E-08
526.73408	3.85437E-08
526.90690	3.85311E-08
527.07971	3.85159E-08
527.25252	3.84986E-08
527.42533	3.84791E-08
527.59815	3.84578E-08
527.77096	3.84347E-08
527.94377	3.84102E-08
528.11659	3.83844E-08
528.28940	3.83574E-08
528.46221	3.83296E-08
528.63503	3.83011E-08
528.80784	3.82721E-08
528.98065	3.82428E-08
529.15347	3.82132E-08
529.32628	3.81837E-08
529.49909	3.81544E-08
529.67190	3.81254E-08
529.84472	3.80969E-08
530.01753	3.80689E-08
530.19034	3.80418E-08
530.36316	3.80157E-08
530.53597	3.79904E-08
530.70878	3.79662E-08
530.88160	3.79434E-08
531.05441	3.79217E-08
531.22722	3.79015E-08
531.40003	3.78826E-08
531.57285	3.78653E-08
531.74566	3.78496E-08
531.91847	3.78354E-08
532.09129	3.78227E-08
532.26410	3.78118E-08
532.43691	3.78026E-08
532.60973	3.77948E-08
532.78254	3.77888E-08
532.95535	3.77844E-08
533.12816	3.77816E-08
533.30098	3.77802E-08
533.47379	3.77805E-08
533.64660	3.77821E-08
533.81942	3.77853E-08
533.99223	3.77898E-08
534.16504	3.77955E-08
534.33786	3.78027E-08
534.51067	3.78108E-08
534.68348	3.78200E-08
534.85629	3.78304E-08
535.02911	3.78417E-08
535.20192	3.78538E-08
535.37473	3.78666E-08
535.54755	3.78800E-08
535.72036	3.78940E-08
535.89317	3.79086E-08
536.06599	3.79236E-08
536.23880	3.79387E-08
536.41161	3.79541E-08
536.58442	3.79696E-08
536.75724	3.79853E-08
536.93005	3.80007E-08
537.10286	3.80161E-08
537.27568	3.80314E-08
537.44849	3.80462E-08
537.62130	3.80608E-08
537.79412	3.80750E-08
537.96693	3.80887E-08
538.13974	3.81018E-08
538.31256	3.81145E-08
538.48537	3.81264E-08
538.65818	3.81378E-08
538.83099	3.81486E-08
539.00381	3.81587E-08
539.17662	3.81681E-08
539.34943	3.81767E-08
539.52225	3.81847E-08
539.69506	3.81921E-08
539.86787	3.81987E-08
540.04069	3.82046E-08
540.21350	3.82099E-08
540.38631	3.82148E-08
540.55912	3.82190E-08
540.73194	3.82226E-08
540.90475	3.82259E-08
541.07756	3.82288E-08
541.25038	3.82314E-08
541.42319	3.82338E-08
541.59600	3.82358E-08
541.76882	3.82379E-08
541.94163	3.82398E-08
542.11444	3.82419E-08
542.28725	3.82440E-08
542.46007	3.82465E-08
542.63288	3.82491E-08
542.80569	3.82522E-08
542.97851	3.82558E-08
543.15132	3.82600E-08
543.32413	3.82648E-08
543.49695	3.82704E-08
543.66976	3.82769E-08
543.84257	3.82843E-08
544.01538	3.82928E-08
544.18820	3.83022E-08
544.36101	3.83129E-08
544.53382	3.83249E-08
544.70664	3.83383E-08
544.87945	3.83529E-08
545.05226	3.83693E-08
545.22508	3.83870E-08
545.39789	3.84063E-08
545.57070	3.84272E-08
545.74351	3.84499E-08
545.91633	3.84742E-08
546.08914	3.85003E-08
546.26195	3.85282E-08
546.43477	3.85579E-08
546.60758	3.85894E-08
546.78039	3.86227E-08
546.95321	3.86579E-08
547.12602	3.86950E-08
547.29883	3.87340E-08
547.47165	3.87748E-08
547.64446	3.88174E-08
547.81727	3.88618E-08
547.99008	3.89079E-08
548.16290	3.89557E-08
548.33571	3.90052E-08
548.50852	3.90564E-08
548.68134	3.91092E-08
548.85415	3.91635E-08
549.02696	3.92192E-08
549.19978	3.92763E-08
549.37259	3.93348E-08
549.54540	3.93944E-08
549.71821	3.94554E-08
549.89103	3.95173E-08
550.06384	3.95802E-08
550.23665	3.96441E-08
550.40947	3.97089E-08
550.58228	3.97743E-08
550.75509	3.98404E-08
550.92791	3.99070E-08
551.10072	3.99741E-08
551.27353	4.00414E-08
551.44634	4.01091E-08
551.61916	4.01770E-08
551.79197	4.02449E-08
551.96478	4.03128E-08
552.13760	4.03804E-08
552.31041	4.04480E-08
552.48322	4.05152E-08
552.65604	4.05821E-08
552.82885	4.06486E-08
553.00166	4.07145E-08
553.17447	4.07799E-08
553.34729	4.08446E-08
553.52010	4.09087E-08
553.69291	4.09719E-08
553.86573	4.10344E-08
554.03854	4.10961E-08
554.21135	4.11569E-08
554.38417	4.12167E-08
554.55698	4.12758E-08
554.72979	4.13338E-08
554.90260	4.13910E-08
555.07542	4.14472E-08
555.24823	4.15026E-08
555.42104	4.15570E-08
555.59386	4.16107E-08
555.76667	4.16634E-08
555.93948	4.17153E-08
556.11230	4.17664E-08
556.28511	4.18170E-08
556.45792	4.18667E-08
556.63074	4.19161E-08
556.80355	4.19647E-08
556.97636	4.20129E-08
557.14917	4.20606E-08
557.32199	4.21080E-08
557.49480	4.21551E-08
557.66761	4.22021E-08
557.84043	4.22489E-08
558.01324	4.22958E-08
558.18605	4.23426E-08
558.35887	4.23897E-08
558.53168	4.24370E-08
558.70449	4.24845E-08
558.87730	4.25325E-08
559.05012	4.25811E-08
559.22293	4.26301E-08
559.39574	4.26798E-08
559.56856	4.27302E-08
559.74137	4.27814E-08
559.91418	4.28334E-08
560.08700	4.28864E-08
560.25981	4.29404E-08
560.43262	4.29953E-08
560.60543	4.30514E-08
560.77825	4.31086E-08
560.95106	4.31669E-08
561.12387	4.32265E-08
561.29669	4.32870E-08
561.46950	4.33489E-08
561.64231	4.34121E-08
561.81513	4.34765E-08
561.98794	4.35421E-08
562.16075	4.36089E-08
562.33356	4.36769E-08
562.50638	4.37461E-08
562.67919	4.38166E-08
562.85200	4.38880E-08
563.02482	4.39606E-08
563.19763	4.40339E-08
563.37044	4.41084E-08
563.54326	4.41837E-08
563.71607	4.42598E-08
563.88888	4.43365E-08
564.06169	4.44139E-08
564.23451	4.44917E-08
564.40732	4.45701E-08
564.58013	4.46486E-08
564.75295	4.47275E-08
564.92576	4.48064E-08
565.09857	4.48852E-08
565.27139	4.49639E-08
565.44420	4.50424E-08
565.61701	4.51203E-08
565.78983	4.51978E-08
565.96264	4.52746E-08
566.13545	4.53506E-08
566.30826	4.54256E-08
566.48108	4.54998E-08
566.65389	4.55726E-08
566.82670	4.56444E-08
566.99952	4.57146E-08
567.17233	4.57835E-08
567.34514	4.58508E-08
567.51796	4.59165E-08
567.69077	4.59802E-08
567.86358	4.60422E-08
568.03639	4.61022E-08
568.20921	4.61602E-08
568.38202	4.62160E-08
568.55483	4.62700E-08
568.72765	4.63218E-08
568.90046	4.63713E-08
569.07327	4.64188E-08
569.24609	4.64639E-08
569.41890	4.65068E-08
569.59171	4.65478E-08
569.76452	4.65863E-08
569.93734	4.66229E-08
570.11015	4.66575E-08
570.28296	4.66900E-08
570.45578	4.67207E-08
570.62859	4.67495E-08
570.80140	4.67766E-08
570.97422	4.68019E-08
571.14703	4.68258E-08
571.31984	4.68485E-08
571.49265	4.68697E-08
571.66547	4.68899E-08
571.83828	4.69090E-08
572.01109	4.69273E-08
572.18391	4.69450E-08
572.35672	4.69623E-08
572.52953	4.69792E-08
572.70235	4.69961E-08
572.87516	4.70130E-08
573.04797	4.70300E-08
573.22078	4.70476E-08
573.39360	4.70657E-08
573.56641	4.70846E-08
573.73922	4.71044E-08
573.91204	4.71253E-08
574.08485	4.71476E-08
574.25766	4.71714E-08
574.43048	4.71969E-08
574.60329	4.72243E-08
574.77610	4.72535E-08
574.94892	4.72849E-08
575.12173	4.73188E-08
575.29454	4.73550E-08
575.46735	4.73939E-08
575.64017	4.74354E-08
575.81298	4.74798E-08
575.98579	4.75272E-08
576.15861	4.75778E-08
576.33142	4.76315E-08
576.50423	4.76886E-08
576.67705	4.77490E-08
576.84986	4.78127E-08
577.02267	4.78798E-08
577.19548	4.79506E-08
577.36830	4.80250E-08
577.54111	4.81028E-08
577.71392	4.81843E-08
577.88674	4.82691E-08
578.05955	4.83575E-08
578.23236	4.84496E-08
578.40518	4.85450E-08
578.57799	4.86440E-08
578.75080	4.87463E-08
578.92361	4.88516E-08
579.09643	4.89604E-08
579.26924	4.90723E-08
579.44205	4.91870E-08
579.61487	4.93046E-08
579.78768	4.94250E-08
579.96049	4.95479E-08
580.13331	4.96732E-08
580.30612	4.98006E-08
580.47893	4.99303E-08
580.65174	5.00618E-08
580.82456	5.01948E-08
580.99737	5.03294E-08
581.17018	5.04653E-08
581.34300	5.06022E-08
581.51581	5.07401E-08
581.68862	5.08783E-08
581.86144	5.10171E-08
582.03425	5.11559E-08
582.20706	5.12945E-08
582.37987	5.14329E-08
582.55269	5.15708E-08
582.72550	5.17078E-08
582.89831	5.18439E-08
583.07113	5.19788E-08
583.24394	5.21120E-08
583.41675	5.22437E-08
583.58957	5.23734E-08
583.76238	5.25011E-08
583.93519	5.26264E-08
584.10801	5.27496E-08
584.28082	5.28699E-08
584.45363	5.29877E-08
584.62644	5.31025E-08
584.79926	5.32143E-08
584.97207	5.33229E-08
585.14488	5.34286E-08
585.31770	5.35310E-08
585.49051	5.36300E-08
585.66332	5.37259E-08
585.83614	5.38183E-08
586.00895	5.39075E-08
586.18176	5.39934E-08
586.35457	5.40759E-08
586.52739	5.41554E-08
586.70020	5.42318E-08
586.87301	5.43053E-08
587.04583	5.43756E-08
587.21864	5.44434E-08
587.39145	5.45084E-08
587.56427	5.45711E-08
587.73708	5.46317E-08
587.90989	5.46900E-08
588.08270	5.47465E-08
588.25552	5.48013E-08
588.42833	5.48550E-08
588.60114	5.49072E-08
588.77396	5.49588E-08
588.94677	5.50100E-08
589.11958	5.50605E-08
589.29240	5.51109E-08
589.46521	5.51616E-08
589.63802	5.52125E-08
589.81083	5.52644E-08
589.98365	5.53174E-08
590.15646	5.53715E-08
590.32927	5.54274E-08
590.50209	5.54849E-08
590.67490	5.55446E-08
590.84771	5.56067E-08
591.02053	5.56714E-08
591.19334	5.57391E-08
591.36615	5.58098E-08
591.53896	5.58839E-08
591.71178	5.59616E-08
591.88459	5.60428E-08
592.05740	5.61283E-08
592.23022	5.62179E-08
592.40303	5.63114E-08
592.57584	5.64096E-08
592.74866	5.65125E-08
592.92147	5.66201E-08
593.09428	5.67325E-08
593.26710	5.68500E-08
593.43991	5.69724E-08
593.61272	5.70995E-08
593.78553	5.72318E-08
593.95835	5.73693E-08
594.13116	5.75120E-08
594.30397	5.76598E-08
594.47679	5.78122E-08
594.64960	5.79702E-08
594.82241	5.81327E-08
594.99523	5.83000E-08
595.16804	5.84720E-08
595.34085	5.86487E-08
595.51366	5.88296E-08
595.68648	5.90147E-08
595.85929	5.92039E-08
596.03210	5.93970E-08
596.20492	5.95934E-08
596.37773	5.97933E-08
596.55054	5.99959E-08
596.72336	6.02015E-08
596.89617	6.04096E-08
597.06898	6.06197E-08
597.24179	6.08318E-08
597.41461	6.10452E-08
597.58742	6.12599E-08
597.76023	6.14753E-08
597.93305	6.16910E-08
598.10586	6.19067E-08
598.27867	6.21220E-08
598.45149	6.23365E-08
598.62430	6.25499E-08
598.79711	6.27619E-08
598.96992	6.29720E-08
599.14274	6.31797E-08
599.31555	6.33845E-08
599.48836	6.35863E-08
599.66118	6.37849E-08
599.83399	6.39797E-08
600.00680	6.41702E-08
600.17962	6.43568E-08
600.35243	6.45381E-08
600.52524	6.47147E-08
600.69805	6.48864E-08
600.87087	6.50524E-08
601.04368	6.52129E-08
601.21649	6.53674E-08
601.38931	6.55164E-08
601.56212	6.56588E-08
601.73493	6.57956E-08
601.90775	6.59259E-08
602.08056	6.60501E-08
602.25337	6.61679E-08
602.42619	6.62799E-08
602.59900	6.63860E-08
602.77181	6.64858E-08
602.94462	6.65800E-08
603.11744	6.66685E-08
603.29025	6.67515E-08
603.46306	6.68293E-08
603.63588	6.69023E-08
603.80869	6.69704E-08
603.98150	6.70344E-08
604.15432	6.70944E-08
604.32713	6.71506E-08
604.49994	6.72035E-08
604.67275	6.72536E-08
604.84557	6.73009E-08
605.01838	6.73459E-08
605.19119	6.73896E-08
605.36401	6.74321E-08
605.53682	6.74730E-08
605.70963	6.75141E-08
605.88245	6.75548E-08
606.05526	6.75959E-08
606.22807	6.76382E-08
606.40088	6.76815E-08
606.57370	6.77266E-08
606.74651	6.77738E-08
606.91932	6.78233E-08
607.09214	6.78763E-08
607.26495	6.79321E-08
607.43776	6.79919E-08
607.61058	6.80553E-08
607.78339	6.81232E-08
607.95620	6.81961E-08
608.12901	6.82735E-08
608.30183	6.83561E-08
608.47464	6.84443E-08
608.64745	6.85386E-08
608.82027	6.86381E-08
608.99308	6.87444E-08
609.16589	6.88571E-08
609.33871	6.89756E-08
609.51152	6.91009E-08
609.68433	6.92335E-08
609.85714	6.93721E-08
610.02996	6.95179E-08
610.20277	6.96701E-08
610.37558	6.98293E-08
610.54840	6.99954E-08
610.72121	7.01683E-08
610.89402	7.03474E-08
611.06684	7.05331E-08
611.23965	7.07256E-08
611.41246	7.09239E-08
611.58528	7.11280E-08
611.75809	7.13384E-08
611.93090	7.15543E-08
612.10371	7.17754E-08
612.27653	7.20012E-08
612.44934	7.22322E-08
612.62215	7.24671E-08
612.79497	7.27063E-08
612.96778	7.29490E-08
613.14059	7.31954E-08
613.31341	7.34442E-08
613.48622	7.36956E-08
613.65903	7.39491E-08
613.83184	7.42047E-08
614.00466	7.44607E-08
614.17747	7.47176E-08
614.35028	7.49746E-08
614.52310	7.52321E-08
614.69591	7.54881E-08
614.86872	7.57436E-08
615.04154	7.59971E-08
615.21435	7.62493E-08
615.38716	7.64990E-08
615.55997	7.67453E-08
615.73279	7.69889E-08
615.90560	7.72296E-08
616.07841	7.74657E-08
616.25123	7.76981E-08
616.42404	7.79256E-08
616.59685	7.81493E-08
616.76967	7.83672E-08
616.94248	7.85804E-08
617.11529	7.87889E-08
617.28810	7.89913E-08
617.46092	7.91888E-08
617.63373	7.93812E-08
617.80654	7.95680E-08
617.97936	7.97493E-08
618.15217	7.99261E-08
618.32498	8.00967E-08
618.49780	8.02631E-08
618.67061	8.04253E-08
618.84342	8.05823E-08
619.01623	8.07356E-08
619.18905	8.08856E-08
619.36186	8.10318E-08
619.53467	8.11745E-08
619.70749	8.13154E-08
619.88030	8.14543E-08
620.05311	8.15917E-08
620.22593	8.17277E-08
620.39874	8.18638E-08
620.57155	8.19995E-08
620.74437	8.21360E-08
620.91718	8.22737E-08
621.08999	8.24135E-08
621.26280	8.25561E-08
621.43562	8.27014E-08
621.60843	8.28509E-08
621.78124	8.30046E-08
621.95406	8.31636E-08
622.12687	8.33282E-08
622.29968	8.34995E-08
622.47250	8.36773E-08
622.64531	8.38628E-08
622.81812	8.40568E-08
622.99093	8.42592E-08
623.16375	8.44711E-08
623.33656	8.46925E-08
623.50937	8.49251E-08
623.68219	8.51677E-08
623.85500	8.54226E-08
624.02781	8.56886E-08
624.20063	8.59667E-08
624.37344	8.62572E-08
624.54625	8.65611E-08
624.71906	8.68786E-08
624.89188	8.72095E-08
625.06469	8.75541E-08
625.23750	8.79131E-08
625.41032	8.82855E-08
625.58313	8.86724E-08
625.75594	8.90736E-08
625.92876	8.94899E-08
626.10157	8.99196E-08
626.27438	9.03645E-08
626.44719	9.08234E-08
626.62001	9.12958E-08
626.79282	9.17828E-08
626.96563	9.22823E-08
627.13845	9.27956E-08
627.31126	9.33212E-08
627.48407	9.38604E-08
627.65689	9.44101E-08
627.82970	9.49714E-08
628.00251	9.55433E-08
628.17532	9.61249E-08
628.34814	9.67157E-08
628.52095	9.73149E-08
628.69376	9.79211E-08
628.86658	9.85338E-08
629.03939	9.91520E-08
629.21220	9.97745E-08
629.38502	1.00400E-07
629.55783	1.01028E-07
629.73064	1.01656E-07
629.90346	1.02285E-07
630.07627	1.02912E-07
630.24908	1.03535E-07
630.42189	1.04155E-07
630.59471	1.04769E-07
630.76752	1.05376E-07
630.94033	1.05975E-07
631.11315	1.06564E-07
631.28596	1.07143E-07
631.45877	1.07710E-07
631.63159	1.08263E-07
631.80440	1.08803E-07
631.97721	1.09327E-07
632.15002	1.09835E-07
632.32284	1.10325E-07
632.49565	1.10798E-07
632.66846	1.11252E-07
632.84128	1.11686E-07
633.01409	1.12100E-07
633.18690	1.12495E-07
633.35972	1.12868E-07
633.53253	1.13222E-07
633.70534	1.13554E-07
633.87815	1.13867E-07
634.05097	1.14158E-07
634.22378	1.14430E-07
634.39659	1.14683E-07
634.56941	1.14917E-07
634.74222	1.15133E-07
634.91503	1.15332E-07
635.08785	1.15515E-07
635.26066	1.15683E-07
635.43347	1.15837E-07
635.60628	1.15978E-07
635.77910	1.16109E-07
635.95191	1.16230E-07
636.12472	1.16343E-07
636.29754	1.16449E-07
636.47035	1.16550E-07
636.64316	1.16648E-07
636.81598	1.16744E-07
636.98879	1.16840E-07
637.16160	1.16938E-07
637.33441	1.17039E-07
637.50723	1.17145E-07
637.68004	1.17258E-07
637.85285	1.17380E-07
638.02567	1.17511E-07
638.19848	1.17654E-07
638.37129	1.17811E-07
638.54411	1.17983E-07
638.71692	1.18171E-07
638.88973	1.18377E-07
639.06255	1.18603E-07
639.23536	1.18849E-07
639.40817	1.19118E-07
639.58098	1.19410E-07
639.75380	1.19727E-07
639.92661	1.20070E-07
640.09942	1.20441E-07
640.27224	1.20839E-07
640.44505	1.21267E-07
640.61786	1.21725E-07
640.79068	1.22214E-07
640.96349	1.22735E-07
641.13630	1.23289E-07
641.30911	1.23876E-07
641.48193	1.24497E-07
641.65474	1.25153E-07
641.82755	1.25843E-07
642.00037	1.26569E-07
642.17318	1.27331E-07
642.34599	1.28128E-07
642.51881	1.28961E-07
642.69162	1.29830E-07
642.86443	1.30735E-07
643.03724	1.31675E-07
643.21006	1.32650E-07
643.38287	1.33660E-07
643.55568	1.34703E-07
643.72850	1.35780E-07
643.90131	1.36889E-07
644.07412	1.38029E-07
644.24694	1.39198E-07
644.41975	1.40396E-07
644.59256	1.41621E-07
644.76537	1.42870E-07
644.93819	1.44142E-07
645.11100	1.45435E-07
645.28381	1.46747E-07
645.45663	1.48074E-07
645.62944	1.49415E-07
645.80225	1.50766E-07
645.97507	1.52125E-07
646.14788	1.53489E-07
646.32069	1.54853E-07
646.49351	1.56215E-07
646.66632	1.57572E-07
646.83913	1.58919E-07
647.01194	1.60253E-07
647.18476	1.61570E-07
647.35757	1.62867E-07
647.53038	1.64140E-07
647.70320	1.65385E-07
647.87601	1.66599E-07
648.04882	1.67778E-07
648.22164	1.68920E-07
648.39445	1.70020E-07
648.56726	1.71076E-07
648.74007	1.72086E-07
648.91289	1.73047E-07
649.08570	1.73956E-07
649.25851	1.74814E-07
649.43133	1.75618E-07
649.60414	1.76366E-07
649.77695	1.77060E-07
649.94977	1.77698E-07
650.12258	1.78280E-07
650.29539	1.78808E-07
650.46820	1.79282E-07
650.64102	1.79703E-07
650.81383	1.80074E-07
650.98664	1.80397E-07
651.15946	1.80675E-07
651.33227	1.80909E-07
651.50508	1.81104E-07
651.67790	1.81262E-07
651.85071	1.81387E-07
652.02352	1.81483E-07
652.19633	1.81554E-07
652.36915	1.81604E-07
652.54196	1.81637E-07
652.71477	1.81658E-07
652.88759	1.81670E-07
653.06040	1.81678E-07
653.23321	1.81687E-07
653.40603	1.81700E-07
653.57884	1.81723E-07
653.75165	1.81759E-07
653.92446	1.81812E-07
654.09728	1.81887E-07
654.27009	1.81987E-07
654.44290	1.82117E-07
654.61572	1.82280E-07
654.78853	1.82479E-07
654.96134	1.82719E-07
655.13416	1.83001E-07
655.30697	1.83331E-07
655.47978	1.83710E-07
655.65260	1.84142E-07
655.82541	1.84630E-07
655.99822	1.85174E-07
656.17103	1.85781E-07
656.34385	1.86449E-07
656.51666	1.87183E-07
656.68947	1.87983E-07
656.86229	1.88853E-07
657.03510	1.89793E-07
657.20791	1.90805E-07
657.38073	1.91892E-07
657.55354	1.93052E-07
657.72635	1.94288E-07
657.89916	1.95600E-07
658.07198	1.96988E-07
658.24479	1.98454E-07
658.41760	1.99997E-07
658.59042	2.01617E-07
658.76323	2.03312E-07
658.93604	2.05083E-07
659.10886	2.06927E-07
659.28167	2.08844E-07
659.45448	2.10830E-07
659.62729	2.12883E-07
659.80011	2.15002E-07
659.97292	2.17182E-07
660.14573	2.19419E-07
660.31855	2.21708E-07
660.49136	2.24046E-07
660.66417	2.26425E-07
660.83699	2.28841E-07
661.00980	2.31286E-07
661.18261	2.33753E-07
661.35542	2.36235E-07
661.52824	2.38722E-07
661.70105	2.41207E-07
661.87386	2.43679E-07
662.04668	2.46129E-07
662.21949	2.48548E-07
662.39230	2.50923E-07
662.56512	2.53246E-07
662.73793	2.55505E-07
662.91074	2.57690E-07
663.08355	2.59788E-07
663.25637	2.61793E-07
663.42918	2.63692E-07
663.60199	2.65477E-07
663.77481	2.67138E-07
663.94762	2.68669E-07
664.12043	2.70061E-07
664.29325	2.71309E-07
664.46606	2.72408E-07
664.63887	2.73353E-07
664.81169	2.74143E-07
664.98450	2.74775E-07
665.15731	2.75251E-07
665.33012	2.75572E-07
665.50294	2.75740E-07
665.67575	2.75760E-07
665.84856	2.75636E-07
666.02138	2.75376E-07
666.19419	2.74986E-07
666.36700	2.74474E-07
666.53982	2.73851E-07
666.71263	2.73128E-07
666.88544	2.72313E-07
667.05825	2.71418E-07
667.23107	2.70455E-07
667.40388	2.69436E-07
667.57669	2.68372E-07
667.74951	2.67275E-07
667.92232	2.66158E-07
668.09513	2.65032E-07
668.26795	2.63909E-07
668.44076	2.62800E-07
668.61357	2.61716E-07
668.78638	2.60669E-07
668.95920	2.59668E-07
669.13201	2.58724E-07
669.30482	2.57846E-07
669.47764	2.57043E-07
669.65045	2.56325E-07
669.82326	2.55701E-07
669.99608	2.55178E-07
670.16889	2.54764E-07
670.34170	2.54467E-07
670.51451	2.54295E-07
670.68733	2.54256E-07
670.86014	2.54356E-07
671.03295	2.54603E-07
671.20577	2.55003E-07
671.37858	2.55564E-07
671.55139	2.56293E-07
671.72421	2.57195E-07
671.89702	2.58280E-07
672.06983	2.59555E-07
672.24264	2.61026E-07
672.41546	2.62701E-07
672.58827	2.64589E-07
672.76108	2.66698E-07
672.93390	2.69037E-07
673.10671	2.71613E-07
673.27952	2.74437E-07
673.45234	2.77519E-07
673.62515	2.80870E-07
673.79796	2.84498E-07
673.97078	2.88416E-07
674.14359	2.92636E-07
674.31640	2.97168E-07
674.48921	3.02028E-07
674.66203	3.07226E-07
674.83484	3.12776E-07
675.00765	3.18692E-07
675.18047	3.24989E-07
675.35328	3.31680E-07
675.52609	3.38781E-07
675.69891	3.46306E-07
675.87172	3.54269E-07
676.04453	3.62680E-07
676.21734	3.71556E-07
676.39016	3.80906E-07
676.56297	3.90744E-07
676.73578	4.01078E-07
676.90860	4.11909E-07
677.08141	4.23245E-07
677.25422	4.35084E-07
677.42704	4.47425E-07
677.59985	4.60254E-07
677.77266	4.73558E-07
677.94547	4.87316E-07
678.11829	5.01498E-07
678.29110	5.16068E-07
678.46391	5.30980E-07
678.63673	5.46170E-07
678.80954	5.61581E-07
678.98235	5.77125E-07
679.15517	5.92718E-07
679.32798	6.08258E-07
679.50079	6.23627E-07
679.67360	6.38717E-07
679.84642	6.53390E-07
680.01923	6.67511E-07
680.19204	6.80944E-07
680.36486	6.93547E-07
680.53767	7.05187E-07
680.71048	7.15733E-07
680.88330	7.25067E-07
681.05611	7.33085E-07
681.22892	7.39704E-07
681.40173	7.44858E-07
681.57455	7.48510E-07
681.74736	7.50644E-07
681.92017	7.51272E-07
682.09299	7.50435E-07
682.26580	7.48191E-07
682.43861	7.44626E-07
682.61143	7.39840E-07
682.78424	7.33953E-07
682.95705	7.27091E-07
683.12987	7.19390E-07
683.30268	7.10989E-07
683.47549	7.02026E-07
683.64830	6.92637E-07
683.82112	6.82948E-07
683.99393	6.73083E-07
684.16674	6.63154E-07
684.33956	6.53265E-07
684.51237	6.43507E-07
684.68518	6.33964E-07
684.85800	6.24708E-07
685.03081	6.15804E-07
685.20362	6.07308E-07
685.37643	5.99263E-07
685.54925	5.91723E-07
685.72206	5.84707E-07
685.89487	5.78253E-07
686.06769	5.72390E-07
686.24050	5.67130E-07
686.41331	5.62509E-07
686.58613	5.58531E-07
686.75894	5.55225E-07
686.93175	5.52603E-07
687.10456	5.50681E-07
687.27738	5.49481E-07
687.45019	5.49023E-07
687.62300	5.49323E-07
687.79582	5.50404E-07
687.96863	5.52302E-07
688.14144	5.55036E-07
688.31426	5.58646E-07
688.48707	5.63173E-07
688.65988	5.68651E-07
688.83269	5.75134E-07
689.00551	5.82681E-07
689.17832	5.91353E-07
689.35113	6.01215E-07
689.52395	6.12356E-07
689.69676	6.24866E-07
689.86957	6.38846E-07
690.04239	6.54414E-07
690.21520	6.71703E-07
690.38801	6.90861E-07
690.56082	7.12060E-07
690.73364	7.35487E-07
690.90645	7.61360E-07
691.07926	7.89922E-07
691.25208	8.21447E-07
691.42489	8.56247E-07
691.59770	8.94667E-07
691.77052	9.37099E-07
691.94333	9.83979E-07
692.11614	1.03579E-06
692.28896	1.09306E-06
692.46177	1.15636E-06
692.63458	1.22629E-06
692.80739	1.30348E-06
692.98021	1.38855E-06
693.15302	1.48202E-06
693.32583	1.58433E-06
693.49865	1.69568E-06
693.67146	1.81590E-06
693.84427	1.94437E-06
694.01709	2.07977E-06
694.18990	2.22000E-06
694.36271	2.36220E-06
694.53552	2.50274E-06
694.70834	2.63767E-06
694.88115	2.76322E-06
695.05396	2.87634E-06
695.22678	2.97541E-06
695.39959	3.06039E-06
695.57240	3.13286E-06
695.74522	3.19574E-06
695.91803	3.25273E-06
696.09084	3.30794E-06
696.26365	3.36540E-06
696.43647	3.42901E-06
696.60928	3.50218E-06
696.78209	3.58799E-06
696.95491	3.68896E-06
697.12772	3.80685E-06
697.30053	3.94234E-06
697.47335	4.09436E-06
697.64616	4.25877E-06
697.81897	4.42704E-06
697.99178	4.58446E-06
698.16460	4.70953E-06
698.33741	4.77608E-06
698.51022	4.76011E-06
698.68304	4.64925E-06
698.85585	4.44981E-06
699.02866	4.18465E-06
699.20148	3.88391E-06
699.37429	3.57503E-06
699.54710	3.27755E-06
699.71991	3.00260E-06
699.89273	2.75500E-06
700.06554	2.53544E-06
700.23835	2.34250E-06
700.41117	2.17375E-06
700.58398	2.02645E-06
700.75679	1.89795E-06
700.92961	1.78581E-06
701.10242	1.68790E-06
701.27523	1.60238E-06
701.44805	1.52769E-06
701.62086	1.46249E-06
701.79367	1.40567E-06
701.96648	1.35629E-06
702.13930	1.31359E-06
702.31211	1.27690E-06
702.48492	1.24569E-06
702.65774	1.21954E-06
702.83055	1.19808E-06
703.00336	1.18103E-06
703.17618	1.16820E-06
703.34899	1.15942E-06
703.52180	1.15462E-06
703.69461	1.15375E-06
703.86743	1.15685E-06
704.04024	1.16400E-06
704.21305	1.17535E-06
704.38587	1.19112E-06
704.55868	1.21158E-06
704.73149	1.23711E-06
704.90431	1.26818E-06
705.07712	1.30538E-06
705.24993	1.34941E-06
705.42274	1.40116E-06
705.59556	1.46166E-06
705.76837	1.53218E-06
705.94118	1.61419E-06
706.11400	1.70941E-06
706.28681	1.81971E-06
706.45962	1.94704E-06
706.63244	2.09302E-06
706.80525	2.25831E-06
706.97806	2.44130E-06
707.15087	2.63612E-06
707.32369	2.82985E-06
707.49650	3.00063E-06
707.66931	3.11962E-06