Wavenumber	NESR 6.60 cm-1
17.97255	4.02073E-09
18.14537	3.95684E-09
18.31818	3.89481E-09
18.49099	3.83473E-09
18.66381	3.77666E-09
18.83662	3.72061E-09
19.00943	3.66660E-09
19.18225	3.61467E-09
19.35506	3.56478E-09
19.52787	3.51694E-09
19.70068	3.47114E-09
19.87350	3.42733E-09
20.04631	3.38548E-09
20.21912	3.34556E-09
20.39194	3.30755E-09
20.56475	3.27138E-09
20.73756	3.23705E-09
20.91038	3.20447E-09
21.08319	3.17361E-09
21.25600	3.14443E-09
21.42881	3.11686E-09
21.60163	3.09088E-09
21.77444	3.06643E-09
21.94725	3.04347E-09
22.12007	3.02195E-09
22.29288	3.00182E-09
22.46569	2.98302E-09
22.63851	2.96552E-09
22.81132	2.94926E-09
22.98413	2.93422E-09
23.15695	2.92035E-09
23.32976	2.90758E-09
23.50257	2.89588E-09
23.67538	2.88523E-09
23.84820	2.87554E-09
24.02101	2.86681E-09
24.19382	2.85899E-09
24.36664	2.85201E-09
24.53945	2.84587E-09
24.71226	2.84050E-09
24.88508	2.83585E-09
25.05789	2.83191E-09
25.23070	2.82863E-09
25.40351	2.82594E-09
25.57633	2.82383E-09
25.74914	2.82227E-09
25.92195	2.82120E-09
26.09477	2.82058E-09
26.26758	2.82038E-09
26.44039	2.82056E-09
26.61321	2.82107E-09
26.78602	2.82188E-09
26.95883	2.82296E-09
27.13164	2.82426E-09
27.30446	2.82575E-09
27.47727	2.82738E-09
27.65008	2.82914E-09
27.82290	2.83098E-09
27.99571	2.83286E-09
28.16852	2.83475E-09
28.34134	2.83664E-09
28.51415	2.83848E-09
28.68696	2.84022E-09
28.85977	2.84189E-09
29.03259	2.84341E-09
29.20540	2.84478E-09
29.37821	2.84597E-09
29.55103	2.84697E-09
29.72384	2.84774E-09
29.89665	2.84828E-09
30.06947	2.84856E-09
30.24228	2.84859E-09
30.41509	2.84831E-09
30.58790	2.84777E-09
30.76072	2.84692E-09
30.93353	2.84578E-09
31.10634	2.84432E-09
31.27916	2.84256E-09
31.45197	2.84048E-09
31.62478	2.83810E-09
31.79760	2.83541E-09
31.97041	2.83241E-09
32.14322	2.82914E-09
32.31604	2.82556E-09
32.48885	2.82173E-09
32.66166	2.81761E-09
32.83447	2.81325E-09
33.00729	2.80865E-09
33.18010	2.80382E-09
33.35291	2.79877E-09
33.52573	2.79354E-09
33.69854	2.78811E-09
33.87135	2.78255E-09
34.04417	2.77683E-09
34.21698	2.77097E-09
34.38979	2.76502E-09
34.56260	2.75897E-09
34.73542	2.75286E-09
34.90823	2.74667E-09
35.08104	2.74046E-09
35.25386	2.73424E-09
35.42667	2.72801E-09
35.59948	2.72180E-09
35.77230	2.71562E-09
35.94511	2.70948E-09
36.11792	2.70342E-09
36.29073	2.69744E-09
36.46355	2.69155E-09
36.63636	2.68577E-09
36.80917	2.68010E-09
36.98199	2.67458E-09
37.15480	2.66920E-09
37.32761	2.66396E-09
37.50043	2.65889E-09
37.67324	2.65400E-09
37.84605	2.64929E-09
38.01886	2.64477E-09
38.19168	2.64044E-09
38.36449	2.63632E-09
38.53730	2.63240E-09
38.71012	2.62869E-09
38.88293	2.62519E-09
39.05574	2.62191E-09
39.22856	2.61884E-09
39.40137	2.61599E-09
39.57418	2.61336E-09
39.74699	2.61094E-09
39.91981	2.60874E-09
40.09262	2.60676E-09
40.26543	2.60498E-09
40.43825	2.60340E-09
40.61106	2.60203E-09
40.78387	2.60087E-09
40.95669	2.59988E-09
41.12950	2.59909E-09
41.30231	2.59848E-09
41.47513	2.59805E-09
41.64794	2.59778E-09
41.82075	2.59766E-09
41.99356	2.59769E-09
42.16638	2.59787E-09
42.33919	2.59818E-09
42.51200	2.59861E-09
42.68482	2.59916E-09
42.85763	2.59981E-09
43.03044	2.60055E-09
43.20326	2.60139E-09
43.37607	2.60229E-09
43.54888	2.60326E-09
43.72169	2.60428E-09
43.89451	2.60533E-09
44.06732	2.60644E-09
44.24013	2.60755E-09
44.41295	2.60870E-09
44.58576	2.60985E-09
44.75857	2.61099E-09
44.93139	2.61212E-09
45.10420	2.61323E-09
45.27701	2.61432E-09
45.44982	2.61535E-09
45.62264	2.61636E-09
45.79545	2.61730E-09
45.96826	2.61821E-09
46.14108	2.61905E-09
46.31389	2.61981E-09
46.48670	2.62049E-09
46.65952	2.62112E-09
46.83233	2.62165E-09
47.00514	2.62211E-09
47.17795	2.62246E-09
47.35077	2.62275E-09
47.52358	2.62293E-09
47.69639	2.62303E-09
47.86921	2.62303E-09
48.04202	2.62296E-09
48.21483	2.62278E-09
48.38765	2.62250E-09
48.56046	2.62215E-09
48.73327	2.62172E-09
48.90608	2.62121E-09
49.07890	2.62061E-09
49.25171	2.61994E-09
49.42452	2.61919E-09
49.59734	2.61839E-09
49.77015	2.61752E-09
49.94296	2.61658E-09
50.11578	2.61560E-09
50.28859	2.61456E-09
50.46140	2.61350E-09
50.63422	2.61238E-09
50.80703	2.61123E-09
50.97984	2.61006E-09
51.15265	2.60887E-09
51.32547	2.60767E-09
51.49828	2.60647E-09
51.67109	2.60526E-09
51.84391	2.60406E-09
52.01672	2.60286E-09
52.18953	2.60169E-09
52.36235	2.60053E-09
52.53516	2.59940E-09
52.70797	2.59831E-09
52.88078	2.59724E-09
53.05360	2.59623E-09
53.22641	2.59526E-09
53.39922	2.59433E-09
53.57204	2.59347E-09
53.74485	2.59266E-09
53.91766	2.59191E-09
54.09048	2.59123E-09
54.26329	2.59062E-09
54.43610	2.59006E-09
54.60891	2.58959E-09
54.78173	2.58920E-09
54.95454	2.58887E-09
55.12735	2.58862E-09
55.30017	2.58844E-09
55.47298	2.58834E-09
55.64579	2.58833E-09
55.81861	2.58838E-09
55.99142	2.58852E-09
56.16423	2.58872E-09
56.33704	2.58901E-09
56.50986	2.58935E-09
56.68267	2.58977E-09
56.85548	2.59026E-09
57.02830	2.59082E-09
57.20111	2.59142E-09
57.37392	2.59210E-09
57.54674	2.59282E-09
57.71955	2.59360E-09
57.89236	2.59441E-09
58.06517	2.59529E-09
58.23799	2.59618E-09
58.41080	2.59711E-09
58.58361	2.59809E-09
58.75643	2.59908E-09
58.92924	2.60010E-09
59.10205	2.60111E-09
59.27487	2.60216E-09
59.44768	2.60320E-09
59.62049	2.60425E-09
59.79331	2.60529E-09
59.96612	2.60633E-09
60.13893	2.60736E-09
60.31174	2.60836E-09
60.48456	2.60935E-09
60.65737	2.61030E-09
60.83018	2.61124E-09
61.00300	2.61213E-09
61.17581	2.61299E-09
61.34862	2.61382E-09
61.52144	2.61459E-09
61.69425	2.61532E-09
61.86706	2.61600E-09
62.03987	2.61663E-09
62.21269	2.61720E-09
62.38550	2.61773E-09
62.55831	2.61819E-09
62.73113	2.61860E-09
62.90394	2.61894E-09
63.07675	2.61923E-09
63.24957	2.61946E-09
63.42238	2.61964E-09
63.59519	2.61976E-09
63.76800	2.61980E-09
63.94082	2.61979E-09
64.11363	2.61973E-09
64.28644	2.61962E-09
64.45926	2.61944E-09
64.63207	2.61921E-09
64.80488	2.61894E-09
64.97770	2.61861E-09
65.15051	2.61825E-09
65.32332	2.61784E-09
65.49613	2.61738E-09
65.66895	2.61691E-09
65.84176	2.61639E-09
66.01457	2.61583E-09
66.18739	2.61527E-09
66.36020	2.61466E-09
66.53301	2.61403E-09
66.70583	2.61339E-09
66.87864	2.61275E-09
67.05145	2.61208E-09
67.22426	2.61140E-09
67.39708	2.61074E-09
67.56989	2.61007E-09
67.74270	2.60939E-09
67.91552	2.60871E-09
68.08833	2.60806E-09
68.26114	2.60741E-09
68.43396	2.60678E-09
68.60677	2.60615E-09
68.77958	2.60556E-09
68.95240	2.60497E-09
69.12521	2.60441E-09
69.29802	2.60388E-09
69.47083	2.60337E-09
69.64365	2.60290E-09
69.81646	2.60245E-09
69.98927	2.60205E-09
70.16209	2.60166E-09
70.33490	2.60132E-09
70.50771	2.60099E-09
70.68053	2.60072E-09
70.85334	2.60048E-09
71.02615	2.60026E-09
71.19896	2.60008E-09
71.37178	2.59994E-09
71.54459	2.59981E-09
71.71740	2.59973E-09
71.89022	2.59967E-09
72.06303	2.59965E-09
72.23584	2.59967E-09
72.40866	2.59969E-09
72.58147	2.59974E-09
72.75428	2.59981E-09
72.92709	2.59991E-09
73.09991	2.60001E-09
73.27272	2.60014E-09
73.44553	2.60027E-09
73.61835	2.60043E-09
73.79116	2.60057E-09
73.96397	2.60072E-09
74.13679	2.60089E-09
74.30960	2.60105E-09
74.48241	2.60122E-09
74.65522	2.60137E-09
74.82804	2.60151E-09
75.00085	2.60164E-09
75.17366	2.60176E-09
75.34648	2.60184E-09
75.51929	2.60193E-09
75.69210	2.60198E-09
75.86492	2.60200E-09
76.03773	2.60200E-09
76.21054	2.60197E-09
76.38335	2.60191E-09
76.55617	2.60181E-09
76.72898	2.60167E-09
76.90179	2.60150E-09
77.07461	2.60128E-09
77.24742	2.60103E-09
77.42023	2.60073E-09
77.59305	2.60039E-09
77.76586	2.60001E-09
77.93867	2.59958E-09
78.11149	2.59911E-09
78.28430	2.59858E-09
78.45711	2.59801E-09
78.62992	2.59741E-09
78.80274	2.59674E-09
78.97555	2.59604E-09
79.14836	2.59531E-09
79.32118	2.59451E-09
79.49399	2.59369E-09
79.66680	2.59281E-09
79.83962	2.59189E-09
80.01243	2.59094E-09
80.18524	2.58995E-09
80.35805	2.58893E-09
80.53087	2.58788E-09
80.70368	2.58679E-09
80.87649	2.58568E-09
81.04931	2.58454E-09
81.22212	2.58338E-09
81.39493	2.58218E-09
81.56775	2.58097E-09
81.74056	2.57974E-09
81.91337	2.57849E-09
82.08618	2.57722E-09
82.25900	2.57594E-09
82.43181	2.57467E-09
82.60462	2.57337E-09
82.77744	2.57207E-09
82.95025	2.57078E-09
83.12306	2.56948E-09
83.29588	2.56818E-09
83.46869	2.56689E-09
83.64150	2.56560E-09
83.81431	2.56432E-09
83.98713	2.56304E-09
84.15994	2.56178E-09
84.33275	2.56052E-09
84.50557	2.55927E-09
84.67838	2.55804E-09
84.85119	2.55683E-09
85.02401	2.55562E-09
85.19682	2.55441E-09
85.36963	2.55325E-09
85.54244	2.55208E-09
85.71526	2.55094E-09
85.88807	2.54980E-09
86.06088	2.54868E-09
86.23370	2.54758E-09
86.40651	2.54650E-09
86.57932	2.54542E-09
86.75214	2.54436E-09
86.92495	2.54331E-09
87.09776	2.54227E-09
87.27058	2.54126E-09
87.44339	2.54023E-09
87.61620	2.53922E-09
87.78901	2.53822E-09
87.96183	2.53722E-09
88.13464	2.53624E-09
88.30745	2.53525E-09
88.48027	2.53425E-09
88.65308	2.53325E-09
88.82589	2.53226E-09
88.99871	2.53124E-09
89.17152	2.53023E-09
89.34433	2.52922E-09
89.51714	2.52818E-09
89.68996	2.52712E-09
89.86277	2.52607E-09
90.03558	2.52499E-09
90.20840	2.52388E-09
90.38121	2.52275E-09
90.55402	2.52161E-09
90.72684	2.52044E-09
90.89965	2.51925E-09
91.07246	2.51802E-09
91.24527	2.51677E-09
91.41809	2.51548E-09
91.59090	2.51417E-09
91.76371	2.51282E-09
91.93653	2.51144E-09
92.10934	2.51002E-09
92.28215	2.50856E-09
92.45497	2.50708E-09
92.62778	2.50555E-09
92.80059	2.50399E-09
92.97340	2.50239E-09
93.14622	2.50075E-09
93.31903	2.49908E-09
93.49184	2.49737E-09
93.66466	2.49562E-09
93.83747	2.49384E-09
94.01028	2.49203E-09
94.18310	2.49019E-09
94.35591	2.48831E-09
94.52872	2.48640E-09
94.70153	2.48446E-09
94.87435	2.48249E-09
95.04716	2.48049E-09
95.21997	2.47846E-09
95.39279	2.47643E-09
95.56560	2.47436E-09
95.73841	2.47229E-09
95.91123	2.47018E-09
96.08404	2.46806E-09
96.25685	2.46594E-09
96.42967	2.46379E-09
96.60248	2.46165E-09
96.77529	2.45951E-09
96.94810	2.45735E-09
97.12092	2.45519E-09
97.29373	2.45304E-09
97.46654	2.45089E-09
97.63936	2.44875E-09
97.81217	2.44663E-09
97.98498	2.44449E-09
98.15780	2.44239E-09
98.33061	2.44029E-09
98.50342	2.43822E-09
98.67623	2.43615E-09
98.84905	2.43411E-09
99.02186	2.43210E-09
99.19467	2.43011E-09
99.36749	2.42814E-09
99.54030	2.42620E-09
99.71311	2.42429E-09
99.88593	2.42241E-09
100.05874	2.42056E-09
100.23155	2.41873E-09
100.40436	2.41693E-09
100.57718	2.41518E-09
100.74999	2.41345E-09
100.92280	2.41176E-09
101.09562	2.41011E-09
101.26843	2.40847E-09
101.44124	2.40688E-09
101.61406	2.40532E-09
101.78687	2.40381E-09
101.95968	2.40231E-09
102.13249	2.40085E-09
102.30531	2.39941E-09
102.47812	2.39802E-09
102.65093	2.39665E-09
102.82375	2.39531E-09
102.99656	2.39400E-09
103.16937	2.39270E-09
103.34219	2.39144E-09
103.51500	2.39021E-09
103.68781	2.38898E-09
103.86062	2.38778E-09
104.03344	2.38660E-09
104.20625	2.38545E-09
104.37906	2.38430E-09
104.55188	2.38315E-09
104.72469	2.38203E-09
104.89750	2.38092E-09
105.07032	2.37980E-09
105.24313	2.37870E-09
105.41594	2.37759E-09
105.58876	2.37649E-09
105.76157	2.37540E-09
105.93438	2.37428E-09
106.10719	2.37318E-09
106.28001	2.37207E-09
106.45282	2.37095E-09
106.62563	2.36981E-09
106.79845	2.36867E-09
106.97126	2.36752E-09
107.14407	2.36635E-09
107.31689	2.36517E-09
107.48970	2.36397E-09
107.66251	2.36274E-09
107.83532	2.36151E-09
108.00814	2.36026E-09
108.18095	2.35897E-09
108.35376	2.35767E-09
108.52658	2.35636E-09
108.69939	2.35501E-09
108.87220	2.35364E-09
109.04502	2.35226E-09
109.21783	2.35086E-09
109.39064	2.34943E-09
109.56345	2.34797E-09
109.73627	2.34650E-09
109.90908	2.34500E-09
110.08189	2.34349E-09
110.25471	2.34195E-09
110.42752	2.34038E-09
110.60033	2.33880E-09
110.77315	2.33721E-09
110.94596	2.33560E-09
111.11877	2.33397E-09
111.29158	2.33234E-09
111.46440	2.33068E-09
111.63721	2.32901E-09
111.81002	2.32734E-09
111.98284	2.32566E-09
112.15565	2.32397E-09
112.32846	2.32227E-09
112.50128	2.32059E-09
112.67409	2.31890E-09
112.84690	2.31720E-09
113.01972	2.31552E-09
113.19253	2.31384E-09
113.36534	2.31216E-09
113.53815	2.31049E-09
113.71097	2.30885E-09
113.88378	2.30721E-09
114.05659	2.30558E-09
114.22941	2.30398E-09
114.40222	2.30239E-09
114.57503	2.30083E-09
114.74785	2.29929E-09
114.92066	2.29777E-09
115.09347	2.29627E-09
115.26628	2.29480E-09
115.43910	2.29337E-09
115.61191	2.29196E-09
115.78472	2.29058E-09
115.95754	2.28924E-09
116.13035	2.28793E-09
116.30316	2.28665E-09
116.47598	2.28540E-09
116.64879	2.28420E-09
116.82160	2.28302E-09
116.99441	2.28189E-09
117.16723	2.28080E-09
117.34004	2.27975E-09
117.51285	2.27874E-09
117.68567	2.27776E-09
117.85848	2.27683E-09
118.03129	2.27594E-09
118.20411	2.27510E-09
118.37692	2.27429E-09
118.54973	2.27353E-09
118.72254	2.27279E-09
118.89536	2.27211E-09
119.06817	2.27146E-09
119.24098	2.27087E-09
119.41380	2.27030E-09
119.58661	2.26977E-09
119.75942	2.26929E-09
119.93224	2.26884E-09
120.10505	2.26845E-09
120.27786	2.26808E-09
120.45067	2.26775E-09
120.62349	2.26745E-09
120.79630	2.26719E-09
120.96911	2.26698E-09
121.14193	2.26679E-09
121.31474	2.26665E-09
121.48755	2.26653E-09
121.66037	2.26644E-09
121.83318	2.26640E-09
122.00599	2.26639E-09
122.17881	2.26640E-09
122.35162	2.26646E-09
122.52443	2.26654E-09
122.69724	2.26665E-09
122.87006	2.26679E-09
123.04287	2.26696E-09
123.21568	2.26715E-09
123.38850	2.26739E-09
123.56131	2.26765E-09
123.73412	2.26793E-09
123.90694	2.26826E-09
124.07975	2.26860E-09
124.25256	2.26899E-09
124.42537	2.26939E-09
124.59819	2.26981E-09
124.77100	2.27029E-09
124.94381	2.27077E-09
125.11663	2.27130E-09
125.28944	2.27187E-09
125.46225	2.27245E-09
125.63507	2.27306E-09
125.80788	2.27372E-09
125.98069	2.27441E-09
126.15350	2.27512E-09
126.32632	2.27587E-09
126.49913	2.27665E-09
126.67194	2.27748E-09
126.84476	2.27834E-09
127.01757	2.27923E-09
127.19038	2.28016E-09
127.36320	2.28114E-09
127.53601	2.28216E-09
127.70882	2.28321E-09
127.88163	2.28430E-09
128.05445	2.28544E-09
128.22726	2.28662E-09
128.40007	2.28784E-09
128.57289	2.28910E-09
128.74570	2.29042E-09
128.91851	2.29178E-09
129.09133	2.29319E-09
129.26414	2.29464E-09
129.43695	2.29614E-09
129.60976	2.29769E-09
129.78258	2.29928E-09
129.95539	2.30092E-09
130.12820	2.30261E-09
130.30102	2.30436E-09
130.47383	2.30614E-09
130.64664	2.30799E-09
130.81946	2.30988E-09
130.99227	2.31181E-09
131.16508	2.31379E-09
131.33790	2.31584E-09
131.51071	2.31793E-09
131.68352	2.32006E-09
131.85633	2.32225E-09
132.02915	2.32448E-09
132.20196	2.32676E-09
132.37477	2.32909E-09
132.54759	2.33146E-09
132.72040	2.33389E-09
132.89321	2.33635E-09
133.06603	2.33884E-09
133.23884	2.34137E-09
133.41165	2.34396E-09
133.58446	2.34657E-09
133.75728	2.34922E-09
133.93009	2.35191E-09
134.10290	2.35464E-09
134.27572	2.35739E-09
134.44853	2.36017E-09
134.62134	2.36297E-09
134.79416	2.36582E-09
134.96697	2.36867E-09
135.13978	2.37155E-09
135.31259	2.37445E-09
135.48541	2.37736E-09
135.65822	2.38029E-09
135.83103	2.38325E-09
136.00385	2.38620E-09
136.17666	2.38918E-09
136.34947	2.39215E-09
136.52229	2.39513E-09
136.69510	2.39810E-09
136.86791	2.40109E-09
137.04072	2.40407E-09
137.21354	2.40705E-09
137.38635	2.41004E-09
137.55916	2.41301E-09
137.73198	2.41598E-09
137.90479	2.41894E-09
138.07760	2.42189E-09
138.25042	2.42483E-09
138.42323	2.42777E-09
138.59604	2.43068E-09
138.76885	2.43357E-09
138.94167	2.43646E-09
139.11448	2.43932E-09
139.28729	2.44219E-09
139.46011	2.44503E-09
139.63292	2.44784E-09
139.80573	2.45064E-09
139.97855	2.45343E-09
140.15136	2.45620E-09
140.32417	2.45894E-09
140.49699	2.46167E-09
140.66980	2.46439E-09
140.84261	2.46707E-09
141.01542	2.46976E-09
141.18824	2.47244E-09
141.36105	2.47509E-09
141.53386	2.47775E-09
141.70668	2.48039E-09
141.87949	2.48301E-09
142.05230	2.48564E-09
142.22512	2.48827E-09
142.39793	2.49088E-09
142.57074	2.49350E-09
142.74355	2.49612E-09
142.91637	2.49874E-09
143.08918	2.50136E-09
143.26199	2.50400E-09
143.43481	2.50665E-09
143.60762	2.50930E-09
143.78043	2.51197E-09
143.95325	2.51466E-09
144.12606	2.51737E-09
144.29887	2.52010E-09
144.47168	2.52285E-09
144.64450	2.52562E-09
144.81731	2.52844E-09
144.99012	2.53127E-09
145.16294	2.53414E-09
145.33575	2.53704E-09
145.50856	2.53999E-09
145.68138	2.54296E-09
145.85419	2.54598E-09
146.02700	2.54903E-09
146.19981	2.55213E-09
146.37263	2.55527E-09
146.54544	2.55848E-09
146.71825	2.56171E-09
146.89107	2.56501E-09
147.06388	2.56836E-09
147.23669	2.57176E-09
147.40951	2.57521E-09
147.58232	2.57870E-09
147.75513	2.58226E-09
147.92794	2.58587E-09
148.10076	2.58954E-09
148.27357	2.59325E-09
148.44638	2.59703E-09
148.61920	2.60084E-09
148.79201	2.60472E-09
148.96482	2.60866E-09
149.13764	2.61265E-09
149.31045	2.61667E-09
149.48326	2.62077E-09
149.65608	2.62492E-09
149.82889	2.62910E-09
150.00170	2.63331E-09
150.17451	2.63761E-09
150.34733	2.64191E-09
150.52014	2.64628E-09
150.69295	2.65070E-09
150.86577	2.65513E-09
151.03858	2.65961E-09
151.21139	2.66412E-09
151.38421	2.66867E-09
151.55702	2.67323E-09
151.72983	2.67784E-09
151.90264	2.68248E-09
152.07546	2.68712E-09
152.24827	2.69181E-09
152.42108	2.69648E-09
152.59390	2.70119E-09
152.76671	2.70590E-09
152.93952	2.71064E-09
153.11234	2.71537E-09
153.28515	2.72013E-09
153.45796	2.72487E-09
153.63077	2.72963E-09
153.80359	2.73438E-09
153.97640	2.73913E-09
154.14921	2.74388E-09
154.32203	2.74862E-09
154.49484	2.75335E-09
154.66765	2.75807E-09
154.84047	2.76279E-09
155.01328	2.76750E-09
155.18609	2.77220E-09
155.35890	2.77688E-09
155.53172	2.78154E-09
155.70453	2.78620E-09
155.87734	2.79083E-09
156.05016	2.79544E-09
156.22297	2.80006E-09
156.39578	2.80464E-09
156.56860	2.80923E-09
156.74141	2.81380E-09
156.91422	2.81835E-09
157.08703	2.82288E-09
157.25985	2.82741E-09
157.43266	2.83193E-09
157.60547	2.83644E-09
157.77829	2.84095E-09
157.95110	2.84544E-09
158.12391	2.84993E-09
158.29673	2.85445E-09
158.46954	2.85893E-09
158.64235	2.86343E-09
158.81517	2.86794E-09
158.98798	2.87245E-09
159.16079	2.87696E-09
159.33360	2.88149E-09
159.50642	2.88604E-09
159.67923	2.89060E-09
159.85204	2.89517E-09
160.02486	2.89978E-09
160.19767	2.90443E-09
160.37048	2.90907E-09
160.54330	2.91377E-09
160.71611	2.91848E-09
160.88892	2.92326E-09
161.06173	2.92804E-09
161.23455	2.93290E-09
161.40736	2.93778E-09
161.58017	2.94272E-09
161.75299	2.94769E-09
161.92580	2.95271E-09
162.09861	2.95778E-09
162.27143	2.96292E-09
162.44424	2.96812E-09
162.61705	2.97336E-09
162.78986	2.97867E-09
162.96268	2.98401E-09
163.13549	2.98945E-09
163.30830	2.99492E-09
163.48112	3.00044E-09
163.65393	3.00605E-09
163.82674	3.01170E-09
163.99956	3.01743E-09
164.17237	3.02319E-09
164.34518	3.02902E-09
164.51799	3.03490E-09
164.69081	3.04085E-09
164.86362	3.04686E-09
165.03643	3.05290E-09
165.20925	3.05901E-09
165.38206	3.06514E-09
165.55487	3.07135E-09
165.72769	3.07758E-09
165.90050	3.08386E-09
166.07331	3.09015E-09
166.24612	3.09650E-09
166.41894	3.10287E-09
166.59175	3.10926E-09
166.76456	3.11567E-09
166.93738	3.12211E-09
167.11019	3.12857E-09
167.28300	3.13503E-09
167.45582	3.14151E-09
167.62863	3.14796E-09
167.80144	3.15443E-09
167.97426	3.16087E-09
168.14707	3.16730E-09
168.31988	3.17371E-09
168.49269	3.18010E-09
168.66551	3.18646E-09
168.83832	3.19279E-09
169.01113	3.19908E-09
169.18395	3.20534E-09
169.35676	3.21154E-09
169.52957	3.21768E-09
169.70239	3.22377E-09
169.87520	3.22981E-09
170.04801	3.23577E-09
170.22082	3.24167E-09
170.39364	3.24749E-09
170.56645	3.25325E-09
170.73926	3.25894E-09
170.91208	3.26452E-09
171.08489	3.27001E-09
171.25770	3.27545E-09
171.43052	3.28076E-09
171.60333	3.28599E-09
171.77614	3.29115E-09
171.94895	3.29620E-09
172.12177	3.30117E-09
172.29458	3.30604E-09
172.46739	3.31079E-09
172.64021	3.31546E-09
172.81302	3.32005E-09
172.98583	3.32453E-09
173.15865	3.32893E-09
173.33146	3.33325E-09
173.50427	3.33748E-09
173.67708	3.34160E-09
173.84990	3.34566E-09
174.02271	3.34963E-09
174.19552	3.35355E-09
174.36834	3.35738E-09
174.54115	3.36112E-09
174.71396	3.36483E-09
174.88678	3.36845E-09
175.05959	3.37204E-09
175.23240	3.37554E-09
175.40521	3.37904E-09
175.57803	3.38248E-09
175.75084	3.38585E-09
175.92365	3.38923E-09
176.09647	3.39257E-09
176.26928	3.39592E-09
176.44209	3.39920E-09
176.61491	3.40251E-09
176.78772	3.40583E-09
176.96053	3.40911E-09
177.13335	3.41241E-09
177.30616	3.41575E-09
177.47897	3.41908E-09
177.65178	3.42245E-09
177.82460	3.42582E-09
177.99741	3.42925E-09
178.17022	3.43274E-09
178.34304	3.43624E-09
178.51585	3.43979E-09
178.68866	3.44341E-09
178.86148	3.44710E-09
179.03429	3.45082E-09
179.20710	3.45460E-09
179.37991	3.45848E-09
179.55273	3.46239E-09
179.72554	3.46640E-09
179.89835	3.47048E-09
180.07117	3.47466E-09
180.24398	3.47887E-09
180.41679	3.48319E-09
180.58961	3.48761E-09
180.76242	3.49210E-09
180.93523	3.49666E-09
181.10804	3.50129E-09
181.28086	3.50602E-09
181.45367	3.51082E-09
181.62648	3.51569E-09
181.79930	3.52067E-09
181.97211	3.52569E-09
182.14492	3.53078E-09
182.31774	3.53595E-09
182.49055	3.54120E-09
182.66336	3.54653E-09
182.83617	3.55189E-09
183.00899	3.55731E-09
183.18180	3.56279E-09
183.35461	3.56830E-09
183.52743	3.57388E-09
183.70024	3.57947E-09
183.87305	3.58510E-09
184.04587	3.59078E-09
184.21868	3.59644E-09
184.39149	3.60214E-09
184.56430	3.60785E-09
184.73712	3.61354E-09
184.90993	3.61925E-09
185.08274	3.62493E-09
185.25556	3.63059E-09
185.42837	3.63621E-09
185.60118	3.64182E-09
185.77400	3.64740E-09
185.94681	3.65293E-09
186.11962	3.65839E-09
186.29244	3.66383E-09
186.46525	3.66916E-09
186.63806	3.67444E-09
186.81087	3.67964E-09
186.98369	3.68476E-09
187.15650	3.68976E-09
187.32931	3.69469E-09
187.50213	3.69951E-09
187.67494	3.70423E-09
187.84775	3.70883E-09
188.02057	3.71332E-09
188.19338	3.71768E-09
188.36619	3.72192E-09
188.53900	3.72602E-09
188.71182	3.72998E-09
188.88463	3.73382E-09
189.05744	3.73751E-09
189.23026	3.74106E-09
189.40307	3.74448E-09
189.57588	3.74774E-09
189.74870	3.75087E-09
189.92151	3.75384E-09
190.09432	3.75667E-09
190.26713	3.75936E-09
190.43995	3.76189E-09
190.61276	3.76428E-09
190.78557	3.76653E-09
190.95839	3.76863E-09
191.13120	3.77061E-09
191.30401	3.77245E-09
191.47683	3.77415E-09
191.64964	3.77572E-09
191.82245	3.77717E-09
191.99526	3.77850E-09
192.16808	3.77970E-09
192.34089	3.78079E-09
192.51370	3.78177E-09
192.68652	3.78266E-09
192.85933	3.78342E-09
193.03214	3.78411E-09
193.20496	3.78470E-09
193.37777	3.78521E-09
193.55058	3.78565E-09
193.72339	3.78601E-09
193.89621	3.78631E-09
194.06902	3.78654E-09
194.24183	3.78672E-09
194.41465	3.78684E-09
194.58746	3.78693E-09
194.76027	3.78697E-09
194.93309	3.78699E-09
195.10590	3.78697E-09
195.27871	3.78693E-09
195.45153	3.78687E-09
195.62434	3.78680E-09
195.79715	3.78674E-09
195.96996	3.78666E-09
196.14278	3.78658E-09
196.31559	3.78652E-09
196.48840	3.78646E-09
196.66122	3.78642E-09
196.83403	3.78640E-09
197.00684	3.78640E-09
197.17966	3.78643E-09
197.35247	3.78649E-09
197.52528	3.78657E-09
197.69809	3.78670E-09
197.87091	3.78685E-09
198.04372	3.78705E-09
198.21653	3.78729E-09
198.38935	3.78757E-09
198.56216	3.78788E-09
198.73497	3.78825E-09
198.90779	3.78866E-09
199.08060	3.78911E-09
199.25341	3.78960E-09
199.42622	3.79014E-09
199.59904	3.79072E-09
199.77185	3.79134E-09
199.94466	3.79202E-09
200.11748	3.79273E-09
200.29029	3.79348E-09
200.46310	3.79427E-09
200.63592	3.79510E-09
200.80873	3.79597E-09
200.98154	3.79688E-09
201.15435	3.79782E-09
201.32717	3.79879E-09
201.49998	3.79980E-09
201.67279	3.80082E-09
201.84561	3.80188E-09
202.01842	3.80296E-09
202.19123	3.80407E-09
202.36405	3.80520E-09
202.53686	3.80634E-09
202.70967	3.80750E-09
202.88248	3.80866E-09
203.05530	3.80985E-09
203.22811	3.81103E-09
203.40092	3.81223E-09
203.57374	3.81344E-09
203.74655	3.81465E-09
203.91936	3.81585E-09
204.09218	3.81706E-09
204.26499	3.81827E-09
204.43780	3.81946E-09
204.61062	3.82066E-09
204.78343	3.82184E-09
204.95624	3.82302E-09
205.12905	3.82418E-09
205.30187	3.82533E-09
205.47468	3.82648E-09
205.64749	3.82761E-09
205.82031	3.82873E-09
205.99312	3.82983E-09
206.16593	3.83091E-09
206.33875	3.83197E-09
206.51156	3.83303E-09
206.68437	3.83406E-09
206.85718	3.83508E-09
207.03000	3.83609E-09
207.20281	3.83708E-09
207.37562	3.83805E-09
207.54844	3.83900E-09
207.72125	3.83996E-09
207.89406	3.84090E-09
208.06688	3.84182E-09
208.23969	3.84274E-09
208.41250	3.84364E-09
208.58531	3.84453E-09
208.75813	3.84542E-09
208.93094	3.84629E-09
209.10375	3.84717E-09
209.27657	3.84804E-09
209.44938	3.84891E-09
209.62219	3.84978E-09
209.79501	3.85065E-09
209.96782	3.85151E-09
210.14063	3.85238E-09
210.31344	3.85326E-09
210.48626	3.85414E-09
210.65907	3.85502E-09
210.83188	3.85591E-09
211.00470	3.85680E-09
211.17751	3.85770E-09
211.35032	3.85862E-09
211.52314	3.85955E-09
211.69595	3.86048E-09
211.86876	3.86143E-09
212.04157	3.86239E-09
212.21439	3.86337E-09
212.38720	3.86436E-09
212.56001	3.86536E-09
212.73283	3.86637E-09
212.90564	3.86740E-09
213.07845	3.86844E-09
213.25127	3.86950E-09
213.42408	3.87057E-09
213.59689	3.87165E-09
213.76971	3.87275E-09
213.94252	3.87386E-09
214.11533	3.87498E-09
214.28814	3.87612E-09
214.46096	3.87728E-09
214.63377	3.87845E-09
214.80658	3.87963E-09
214.97940	3.88081E-09
215.15221	3.88200E-09
215.32502	3.88321E-09
215.49784	3.88442E-09
215.67065	3.88564E-09
215.84346	3.88687E-09
216.01627	3.88811E-09
216.18909	3.88934E-09
216.36190	3.89058E-09
216.53471	3.89182E-09
216.70753	3.89306E-09
216.88034	3.89430E-09
217.05315	3.89554E-09
217.22597	3.89679E-09
217.39878	3.89802E-09
217.57159	3.89924E-09
217.74440	3.90047E-09
217.91722	3.90169E-09
218.09003	3.90291E-09
218.26284	3.90412E-09
218.43566	3.90532E-09
218.60847	3.90652E-09
218.78128	3.90771E-09
218.95410	3.90889E-09
219.12691	3.91007E-09
219.29972	3.91124E-09
219.47253	3.91241E-09
219.64535	3.91355E-09
219.81816	3.91469E-09
219.99097	3.91583E-09
220.16379	3.91696E-09
220.33660	3.91809E-09
220.50941	3.91920E-09
220.68223	3.92031E-09
220.85504	3.92143E-09
221.02785	3.92254E-09
221.20066	3.92365E-09
221.37348	3.92477E-09
221.54629	3.92588E-09
221.71910	3.92700E-09
221.89192	3.92813E-09
222.06473	3.92926E-09
222.23754	3.93040E-09
222.41036	3.93156E-09
222.58317	3.93272E-09
222.75598	3.93389E-09
222.92880	3.93510E-09
223.10161	3.93631E-09
223.27442	3.93753E-09
223.44723	3.93879E-09
223.62005	3.94006E-09
223.79286	3.94136E-09
223.96567	3.94269E-09
224.13849	3.94405E-09
224.31130	3.94543E-09
224.48411	3.94684E-09
224.65693	3.94829E-09
224.82974	3.94978E-09
225.00255	3.95130E-09
225.17536	3.95288E-09
225.34818	3.95449E-09
225.52099	3.95615E-09
225.69380	3.95785E-09
225.86662	3.95960E-09
226.03943	3.96140E-09
226.21224	3.96324E-09
226.38506	3.96513E-09
226.55787	3.96707E-09
226.73068	3.96907E-09
226.90349	3.97112E-09
227.07631	3.97323E-09
227.24912	3.97538E-09
227.42193	3.97759E-09
227.59475	3.97986E-09
227.76756	3.98218E-09
227.94037	3.98454E-09
228.11319	3.98698E-09
228.28600	3.98946E-09
228.45881	3.99200E-09
228.63162	3.99459E-09
228.80444	3.99725E-09
228.97725	3.99995E-09
229.15006	4.00270E-09
229.32288	4.00551E-09
229.49569	4.00837E-09
229.66850	4.01129E-09
229.84132	4.01425E-09
230.01413	4.01727E-09
230.18694	4.02033E-09
230.35975	4.02344E-09
230.53257	4.02659E-09
230.70538	4.02977E-09
230.87819	4.03301E-09
231.05101	4.03629E-09
231.22382	4.03961E-09
231.39663	4.04296E-09
231.56945	4.04636E-09
231.74226	4.04978E-09
231.91507	4.05324E-09
232.08789	4.05673E-09
232.26070	4.06025E-09
232.43351	4.06381E-09
232.60632	4.06737E-09
232.77914	4.07098E-09
232.95195	4.07460E-09
233.12476	4.07826E-09
233.29758	4.08193E-09
233.47039	4.08562E-09
233.64320	4.08933E-09
233.81602	4.09305E-09
233.98883	4.09680E-09
234.16164	4.10056E-09
234.33445	4.10433E-09
234.50727	4.10813E-09
234.68008	4.11193E-09
234.85289	4.11575E-09
235.02571	4.11958E-09
235.19852	4.12341E-09
235.37133	4.12725E-09
235.54415	4.13112E-09
235.71696	4.13499E-09
235.88977	4.13887E-09
236.06258	4.14277E-09
236.23540	4.14667E-09
236.40821	4.15059E-09
236.58102	4.15451E-09
236.75384	4.15846E-09
236.92665	4.16242E-09
237.09946	4.16639E-09
237.27228	4.17038E-09
237.44509	4.17439E-09
237.61790	4.17841E-09
237.79071	4.18244E-09
237.96353	4.18649E-09
238.13634	4.19056E-09
238.30915	4.19465E-09
238.48197	4.19875E-09
238.65478	4.20288E-09
238.82759	4.20702E-09
239.00041	4.21119E-09
239.17322	4.21539E-09
239.34603	4.21961E-09
239.51884	4.22385E-09
239.69166	4.22812E-09
239.86447	4.23241E-09
240.03728	4.23672E-09
240.21010	4.24106E-09
240.38291	4.24543E-09
240.55572	4.24983E-09
240.72854	4.25427E-09
240.90135	4.25872E-09
241.07416	4.26321E-09
241.24698	4.26772E-09
241.41979	4.27226E-09
241.59260	4.27682E-09
241.76541	4.28141E-09
241.93823	4.28603E-09
242.11104	4.29068E-09
242.28385	4.29535E-09
242.45667	4.30004E-09
242.62948	4.30476E-09
242.80229	4.30950E-09
242.97511	4.31425E-09
243.14792	4.31902E-09
243.32073	4.32382E-09
243.49354	4.32863E-09
243.66636	4.33345E-09
243.83917	4.33829E-09
244.01198	4.34313E-09
244.18480	4.34800E-09
244.35761	4.35286E-09
244.53042	4.35774E-09
244.70324	4.36262E-09
244.87605	4.36751E-09
245.04886	4.37239E-09
245.22167	4.37728E-09
245.39449	4.38215E-09
245.56730	4.38702E-09
245.74011	4.39188E-09
245.91293	4.39672E-09
246.08574	4.40156E-09
246.25855	4.40637E-09
246.43137	4.41117E-09
246.60418	4.41595E-09
246.77699	4.42071E-09
246.94980	4.42544E-09
247.12262	4.43015E-09
247.29543	4.43482E-09
247.46824	4.43947E-09
247.64106	4.44408E-09
247.81387	4.44867E-09
247.98668	4.45323E-09
248.15950	4.45774E-09
248.33231	4.46223E-09
248.50512	4.46666E-09
248.67794	4.47107E-09
248.85075	4.47543E-09
249.02356	4.47977E-09
249.19637	4.48407E-09
249.36919	4.48834E-09
249.54200	4.49256E-09
249.71481	4.49677E-09
249.88763	4.50093E-09
250.06044	4.50505E-09
250.23325	4.50915E-09
250.40607	4.51321E-09
250.57888	4.51724E-09
250.75169	4.52125E-09
250.92450	4.52523E-09
251.09732	4.52921E-09
251.27013	4.53315E-09
251.44294	4.53708E-09
251.61576	4.54099E-09
251.78857	4.54491E-09
251.96138	4.54880E-09
252.13420	4.55269E-09
252.30701	4.55659E-09
252.47982	4.56050E-09
252.65263	4.56441E-09
252.82545	4.56833E-09
252.99826	4.57226E-09
253.17107	4.57621E-09
253.34389	4.58020E-09
253.51670	4.58422E-09
253.68951	4.58826E-09
253.86233	4.59232E-09
254.03514	4.59644E-09
254.20795	4.60060E-09
254.38076	4.60481E-09
254.55358	4.60907E-09
254.72639	4.61337E-09
254.89920	4.61774E-09
255.07202	4.62218E-09
255.24483	4.62668E-09
255.41764	4.63126E-09
255.59046	4.63592E-09
255.76327	4.64065E-09
255.93608	4.64547E-09
256.10889	4.65037E-09
256.28171	4.65536E-09
256.45452	4.66042E-09
256.62733	4.66559E-09
256.80015	4.67084E-09
256.97296	4.67619E-09
257.14577	4.68165E-09
257.31859	4.68719E-09
257.49140	4.69283E-09
257.66421	4.69858E-09
257.83703	4.70443E-09
258.00984	4.71038E-09
258.18265	4.71643E-09
258.35546	4.72257E-09
258.52828	4.72882E-09
258.70109	4.73516E-09
258.87390	4.74161E-09
259.04672	4.74814E-09
259.21953	4.75478E-09
259.39234	4.76152E-09
259.56516	4.76834E-09
259.73797	4.77525E-09
259.91078	4.78225E-09
260.08359	4.78934E-09
260.25641	4.79651E-09
260.42922	4.80376E-09
260.60203	4.81107E-09
260.77485	4.81847E-09
260.94766	4.82592E-09
261.12047	4.83344E-09
261.29329	4.84102E-09
261.46610	4.84866E-09
261.63891	4.85635E-09
261.81172	4.86408E-09
261.98454	4.87185E-09
262.15735	4.87966E-09
262.33016	4.88751E-09
262.50298	4.89538E-09
262.67579	4.90329E-09
262.84860	4.91123E-09
263.02142	4.91917E-09
263.19423	4.92713E-09
263.36704	4.93511E-09
263.53985	4.94308E-09
263.71267	4.95105E-09
263.88548	4.95902E-09
264.05829	4.96699E-09
264.23111	4.97494E-09
264.40392	4.98288E-09
264.57673	4.99081E-09
264.74955	4.99873E-09
264.92236	5.00662E-09
265.09517	5.01450E-09
265.26798	5.02234E-09
265.44080	5.03016E-09
265.61361	5.03794E-09
265.78642	5.04571E-09
265.95924	5.05342E-09
266.13205	5.06112E-09
266.30486	5.06879E-09
266.47768	5.07643E-09
266.65049	5.08403E-09
266.82330	5.09159E-09
266.99612	5.09914E-09
267.16893	5.10664E-09
267.34174	5.11411E-09
267.51455	5.12156E-09
267.68737	5.12897E-09
267.86018	5.13637E-09
268.03299	5.14375E-09
268.20581	5.15110E-09
268.37862	5.15844E-09
268.55143	5.16577E-09
268.72425	5.17309E-09
268.89706	5.18040E-09
269.06987	5.18771E-09
269.24268	5.19501E-09
269.41550	5.20232E-09
269.58831	5.20962E-09
269.76112	5.21694E-09
269.93394	5.22428E-09
270.10675	5.23162E-09
270.27956	5.23899E-09
270.45238	5.24638E-09
270.62519	5.25381E-09
270.79800	5.26126E-09
270.97081	5.26873E-09
271.14363	5.27624E-09
271.31644	5.28381E-09
271.48925	5.29141E-09
271.66207	5.29905E-09
271.83488	5.30674E-09
272.00769	5.31448E-09
272.18051	5.32227E-09
272.35332	5.33012E-09
272.52613	5.33802E-09
272.69894	5.34598E-09
272.87176	5.35401E-09
273.04457	5.36209E-09
273.21738	5.37023E-09
273.39020	5.37844E-09
273.56301	5.38670E-09
273.73582	5.39502E-09
273.90864	5.40341E-09
274.08145	5.41185E-09
274.25426	5.42035E-09
274.42707	5.42890E-09
274.59989	5.43751E-09
274.77270	5.44616E-09
274.94551	5.45487E-09
275.11833	5.46363E-09
275.29114	5.47245E-09
275.46395	5.48129E-09
275.63677	5.49017E-09
275.80958	5.49908E-09
275.98239	5.50803E-09
276.15521	5.51699E-09
276.32802	5.52599E-09
276.50083	5.53499E-09
276.67364	5.54400E-09
276.84646	5.55302E-09
277.01927	5.56205E-09
277.19208	5.57107E-09
277.36490	5.58009E-09
277.53771	5.58908E-09
277.71052	5.59805E-09
277.88334	5.60699E-09
278.05615	5.61590E-09
278.22896	5.62478E-09
278.40177	5.63361E-09
278.57459	5.64240E-09
278.74740	5.65113E-09
278.92021	5.65980E-09
279.09303	5.66840E-09
279.26584	5.67694E-09
279.43865	5.68539E-09
279.61147	5.69377E-09
279.78428	5.70206E-09
279.95709	5.71027E-09
280.12990	5.71838E-09
280.30272	5.72642E-09
280.47553	5.73434E-09
280.64834	5.74218E-09
280.82116	5.74990E-09
280.99397	5.75753E-09
281.16678	5.76505E-09
281.33960	5.77246E-09
281.51241	5.77977E-09
281.68522	5.78695E-09
281.85803	5.79404E-09
282.03085	5.80101E-09
282.20366	5.80788E-09
282.37647	5.81463E-09
282.54929	5.82129E-09
282.72210	5.82784E-09
282.89491	5.83428E-09
283.06773	5.84063E-09
283.24054	5.84688E-09
283.41335	5.85304E-09
283.58616	5.85909E-09
283.75898	5.86507E-09
283.93179	5.87098E-09
284.10460	5.87680E-09
284.27742	5.88255E-09
284.45023	5.88825E-09
284.62304	5.89387E-09
284.79586	5.89944E-09
284.96867	5.90496E-09
285.14148	5.91045E-09
285.31430	5.91589E-09
285.48711	5.92129E-09
285.65992	5.92665E-09
285.83273	5.93199E-09
286.00555	5.93732E-09
286.17836	5.94264E-09
286.35117	5.94795E-09
286.52399	5.95326E-09
286.69680	5.95858E-09
286.86961	5.96389E-09
287.04243	5.96924E-09
287.21524	5.97460E-09
287.38805	5.98000E-09
287.56086	5.98541E-09
287.73368	5.99087E-09
287.90649	5.99637E-09
288.07930	6.00191E-09
288.25212	6.00751E-09
288.42493	6.01314E-09
288.59774	6.01881E-09
288.77056	6.02455E-09
288.94337	6.03035E-09
289.11618	6.03619E-09
289.28899	6.04210E-09
289.46181	6.04806E-09
289.63462	6.05408E-09
289.80743	6.06015E-09
289.98025	6.06629E-09
290.15306	6.07249E-09
290.32587	6.07875E-09
290.49869	6.08505E-09
290.67150	6.09143E-09
290.84431	6.09783E-09
291.01712	6.10429E-09
291.18994	6.11079E-09
291.36275	6.11733E-09
291.53556	6.12391E-09
291.70838	6.13052E-09
291.88119	6.13715E-09
292.05400	6.14380E-09
292.22682	6.15047E-09
292.39963	6.15716E-09
292.57244	6.16385E-09
292.74525	6.17056E-09
292.91807	6.17726E-09
293.09088	6.18394E-09
293.26369	6.19063E-09
293.43651	6.19726E-09
293.60932	6.20389E-09
293.78213	6.21049E-09
293.95495	6.21704E-09
294.12776	6.22355E-09
294.30057	6.23000E-09
294.47339	6.23639E-09
294.64620	6.24272E-09
294.81901	6.24898E-09
294.99182	6.25517E-09
295.16464	6.26128E-09
295.33745	6.26730E-09
295.51026	6.27323E-09
295.68308	6.27907E-09
295.85589	6.28481E-09
296.02870	6.29044E-09
296.20152	6.29597E-09
296.37433	6.30140E-09
296.54714	6.30672E-09
296.71995	6.31191E-09
296.89277	6.31699E-09
297.06558	6.32197E-09
297.23839	6.32683E-09
297.41121	6.33156E-09
297.58402	6.33618E-09
297.75683	6.34068E-09
297.92965	6.34505E-09
298.10246	6.34931E-09
298.27527	6.35346E-09
298.44808	6.35751E-09
298.62090	6.36145E-09
298.79371	6.36528E-09
298.96652	6.36901E-09
299.13934	6.37263E-09
299.31215	6.37617E-09
299.48496	6.37961E-09
299.65778	6.38296E-09
299.83059	6.38623E-09
300.00340	6.38944E-09
300.17621	6.39257E-09
300.34903	6.39561E-09
300.52184	6.39860E-09
300.69465	6.40156E-09
300.86747	6.40445E-09
301.04028	6.40729E-09
301.21309	6.41011E-09
301.38591	6.41290E-09
301.55872	6.41566E-09
301.73153	6.41841E-09
301.90434	6.42114E-09
302.07716	6.42388E-09
302.24997	6.42662E-09
302.42278	6.42937E-09
302.59560	6.43212E-09
302.76841	6.43489E-09
302.94122	6.43768E-09
303.11404	6.44051E-09
303.28685	6.44337E-09
303.45966	6.44627E-09
303.63248	6.44920E-09
303.80529	6.45218E-09
303.97810	6.45521E-09
304.15091	6.45830E-09
304.32373	6.46144E-09
304.49654	6.46463E-09
304.66935	6.46789E-09
304.84217	6.47119E-09
305.01498	6.47458E-09
305.18779	6.47801E-09
305.36061	6.48152E-09
305.53342	6.48509E-09
305.70623	6.48871E-09
305.87904	6.49241E-09
306.05186	6.49616E-09
306.22467	6.49998E-09
306.39748	6.50384E-09
306.57030	6.50776E-09
306.74311	6.51175E-09
306.91592	6.51578E-09
307.08874	6.51985E-09
307.26155	6.52395E-09
307.43436	6.52809E-09
307.60717	6.53228E-09
307.77999	6.53649E-09
307.95280	6.54073E-09
308.12561	6.54499E-09
308.29843	6.54926E-09
308.47124	6.55354E-09
308.64405	6.55782E-09
308.81687	6.56211E-09
308.98968	6.56641E-09
309.16249	6.57069E-09
309.33530	6.57495E-09
309.50812	6.57919E-09
309.68093	6.58339E-09
309.85374	6.58759E-09
310.02656	6.59175E-09
310.19937	6.59586E-09
310.37218	6.59992E-09
310.54500	6.60393E-09
310.71781	6.60790E-09
310.89062	6.61180E-09
311.06343	6.61565E-09
311.23625	6.61943E-09
311.40906	6.62315E-09
311.58187	6.62681E-09
311.75469	6.63040E-09
311.92750	6.63390E-09
312.10031	6.63733E-09
312.27313	6.64069E-09
312.44594	6.64397E-09
312.61875	6.64718E-09
312.79157	6.65030E-09
312.96438	6.65337E-09
313.13719	6.65636E-09
313.31000	6.65930E-09
313.48282	6.66215E-09
313.65563	6.66495E-09
313.82844	6.66768E-09
314.00126	6.67035E-09
314.17407	6.67296E-09
314.34688	6.67552E-09
314.51970	6.67803E-09
314.69251	6.68049E-09
314.86532	6.68294E-09
315.03813	6.68534E-09
315.21095	6.68773E-09
315.38376	6.69010E-09
315.55657	6.69244E-09
315.72939	6.69478E-09
315.90220	6.69711E-09
316.07501	6.69946E-09
316.24783	6.70182E-09
316.42064	6.70420E-09
316.59345	6.70660E-09
316.76626	6.70905E-09
316.93908	6.71151E-09
317.11189	6.71402E-09
317.28470	6.71660E-09
317.45752	6.71922E-09
317.63033	6.72192E-09
317.80314	6.72469E-09
317.97596	6.72754E-09
318.14877	6.73047E-09
318.32158	6.73348E-09
318.49439	6.73658E-09
318.66721	6.73977E-09
318.84002	6.74306E-09
319.01283	6.74645E-09
319.18565	6.74995E-09
319.35846	6.75356E-09
319.53127	6.75728E-09
319.70409	6.76111E-09
319.87690	6.76505E-09
320.04971	6.76911E-09
320.22252	6.77328E-09
320.39534	6.77758E-09
320.56815	6.78200E-09
320.74096	6.78653E-09
320.91378	6.79117E-09
321.08659	6.79591E-09
321.25940	6.80078E-09
321.43222	6.80575E-09
321.60503	6.81082E-09
321.77784	6.81600E-09
321.95066	6.82127E-09
322.12347	6.82664E-09
322.29628	6.83209E-09
322.46909	6.83763E-09
322.64191	6.84325E-09
322.81472	6.84892E-09
322.98753	6.85469E-09
323.16035	6.86052E-09
323.33316	6.86639E-09
323.50597	6.87233E-09
323.67879	6.87830E-09
323.85160	6.88431E-09
324.02441	6.89034E-09
324.19722	6.89640E-09
324.37004	6.90246E-09
324.54285	6.90854E-09
324.71566	6.91461E-09
324.88848	6.92067E-09
325.06129	6.92673E-09
325.23410	6.93275E-09
325.40692	6.93876E-09
325.57973	6.94473E-09
325.75254	6.95067E-09
325.92535	6.95655E-09
326.09817	6.96238E-09
326.27098	6.96817E-09
326.44379	6.97389E-09
326.61661	6.97954E-09
326.78942	6.98512E-09
326.96223	6.99064E-09
327.13505	6.99610E-09
327.30786	7.00149E-09
327.48067	7.00678E-09
327.65348	7.01198E-09
327.82630	7.01712E-09
327.99911	7.02218E-09
328.17192	7.02718E-09
328.34474	7.03210E-09
328.51755	7.03695E-09
328.69036	7.04172E-09
328.86318	7.04644E-09
329.03599	7.05108E-09
329.20880	7.05568E-09
329.38161	7.06021E-09
329.55443	7.06469E-09
329.72724	7.06913E-09
329.90005	7.07355E-09
330.07287	7.07794E-09
330.24568	7.08230E-09
330.41849	7.08662E-09
330.59131	7.09096E-09
330.76412	7.09528E-09
330.93693	7.09962E-09
331.10975	7.10396E-09
331.28256	7.10834E-09
331.45537	7.11275E-09
331.62818	7.11721E-09
331.80100	7.12172E-09
331.97381	7.12630E-09
332.14662	7.13094E-09
332.31944	7.13567E-09
332.49225	7.14048E-09
332.66506	7.14542E-09
332.83788	7.15045E-09
333.01069	7.15560E-09
333.18350	7.16086E-09
333.35631	7.16625E-09
333.52913	7.17179E-09
333.70194	7.17749E-09
333.87475	7.18334E-09
334.04757	7.18936E-09
334.22038	7.19553E-09
334.39319	7.20189E-09
334.56601	7.20843E-09
334.73882	7.21514E-09
334.91163	7.22204E-09
335.08444	7.22912E-09
335.25726	7.23640E-09
335.43007	7.24387E-09
335.60288	7.25154E-09
335.77570	7.25940E-09
335.94851	7.26748E-09
336.12132	7.27573E-09
336.29414	7.28418E-09
336.46695	7.29283E-09
336.63976	7.30166E-09
336.81257	7.31069E-09
336.98539	7.31989E-09
337.15820	7.32927E-09
337.33101	7.33882E-09
337.50383	7.34853E-09
337.67664	7.35840E-09
337.84945	7.36841E-09
338.02227	7.37859E-09
338.19508	7.38890E-09
338.36789	7.39934E-09
338.54070	7.40991E-09
338.71352	7.42056E-09
338.88633	7.43133E-09
339.05914	7.44218E-09
339.23196	7.45312E-09
339.40477	7.46412E-09
339.57758	7.47518E-09
339.75040	7.48631E-09
339.92321	7.49746E-09
340.09602	7.50863E-09
340.26884	7.51982E-09
340.44165	7.53101E-09
340.61446	7.54220E-09
340.78727	7.55338E-09
340.96009	7.56453E-09
341.13290	7.57566E-09
341.30571	7.58672E-09
341.47853	7.59776E-09
341.65134	7.60873E-09
341.82415	7.61963E-09
341.99697	7.63046E-09
342.16978	7.64121E-09
342.34259	7.65186E-09
342.51540	7.66241E-09
342.68822	7.67288E-09
342.86103	7.68324E-09
343.03384	7.69352E-09
343.20666	7.70368E-09
343.37947	7.71375E-09
343.55228	7.72371E-09
343.72510	7.73357E-09
343.89791	7.74332E-09
344.07072	7.75299E-09
344.24353	7.76256E-09
344.41635	7.77204E-09
344.58916	7.78145E-09
344.76197	7.79078E-09
344.93479	7.80005E-09
345.10760	7.80925E-09
345.28041	7.81842E-09
345.45323	7.82756E-09
345.62604	7.83665E-09
345.79885	7.84575E-09
345.97166	7.85483E-09
346.14448	7.86392E-09
346.31729	7.87304E-09
346.49010	7.88219E-09
346.66292	7.89143E-09
346.83573	7.90071E-09
347.00854	7.91009E-09
347.18136	7.91956E-09
347.35417	7.92913E-09
347.52698	7.93885E-09
347.69979	7.94871E-09
347.87261	7.95874E-09
348.04542	7.96895E-09
348.21823	7.97934E-09
348.39105	7.98997E-09
348.56386	8.00080E-09
348.73667	8.01186E-09
348.90949	8.02318E-09
349.08230	8.03478E-09
349.25511	8.04666E-09
349.42793	8.05882E-09
349.60074	8.07130E-09
349.77355	8.08407E-09
349.94636	8.09716E-09
350.11918	8.11061E-09
350.29199	8.12438E-09
350.46480	8.13853E-09
350.63762	8.15299E-09
350.81043	8.16782E-09
350.98324	8.18301E-09
351.15606	8.19858E-09
351.32887	8.21449E-09
351.50168	8.23079E-09
351.67449	8.24743E-09
351.84731	8.26446E-09
352.02012	8.28181E-09
352.19293	8.29954E-09
352.36575	8.31762E-09
352.53856	8.33602E-09
352.71137	8.35477E-09
352.88419	8.37384E-09
353.05700	8.39321E-09
353.22981	8.41288E-09
353.40262	8.43284E-09
353.57544	8.45308E-09
353.74825	8.47357E-09
353.92106	8.49427E-09
354.09388	8.51521E-09
354.26669	8.53634E-09
354.43950	8.55765E-09
354.61232	8.57911E-09
354.78513	8.60070E-09
354.95794	8.62240E-09
355.13075	8.64419E-09
355.30357	8.66605E-09
355.47638	8.68795E-09
355.64919	8.70987E-09
355.82201	8.73179E-09
355.99482	8.75367E-09
356.16763	8.77552E-09
356.34045	8.79728E-09
356.51326	8.81893E-09
356.68607	8.84049E-09
356.85888	8.86189E-09
357.03170	8.88312E-09
357.20451	8.90419E-09
357.37732	8.92502E-09
357.55014	8.94567E-09
357.72295	8.96608E-09
357.89576	8.98624E-09
358.06858	9.00614E-09
358.24139	9.02577E-09
358.41420	9.04513E-09
358.58702	9.06420E-09
358.75983	9.08299E-09
358.93264	9.10148E-09
359.10545	9.11968E-09
359.27827	9.13760E-09
359.45108	9.15525E-09
359.62389	9.17261E-09
359.79671	9.18972E-09
359.96952	9.20659E-09
360.14233	9.22320E-09
360.31515	9.23961E-09
360.48796	9.25583E-09
360.66077	9.27187E-09
360.83358	9.28776E-09
361.00640	9.30355E-09
361.17921	9.31923E-09
361.35202	9.33487E-09
361.52484	9.35048E-09
361.69765	9.36612E-09
361.87046	9.38181E-09
362.04328	9.39762E-09
362.21609	9.41357E-09
362.38890	9.42969E-09
362.56171	9.44604E-09
362.73453	9.46267E-09
362.90734	9.47963E-09
363.08015	9.49698E-09
363.25297	9.51478E-09
363.42578	9.53305E-09
363.59859	9.55186E-09
363.77141	9.57125E-09
363.94422	9.59130E-09
364.11703	9.61205E-09
364.28984	9.63356E-09
364.46266	9.65587E-09
364.63547	9.67905E-09
364.80828	9.70313E-09
364.98110	9.72818E-09
365.15391	9.75426E-09
365.32672	9.78140E-09
365.49954	9.80968E-09
365.67235	9.83910E-09
365.84516	9.86973E-09
366.01797	9.90164E-09
366.19079	9.93488E-09
366.36360	9.96945E-09
366.53641	1.00054E-08
366.70923	1.00428E-08
366.88204	1.00816E-08
367.05485	1.01220E-08
367.22767	1.01639E-08
367.40048	1.02073E-08
367.57329	1.02523E-08
367.74611	1.02990E-08
367.91892	1.03473E-08
368.09173	1.03972E-08
368.26454	1.04488E-08
368.43736	1.05021E-08
368.61017	1.05570E-08
368.78298	1.06136E-08
368.95580	1.06719E-08
369.12861	1.07318E-08
369.30142	1.07933E-08
369.47424	1.08565E-08
369.64705	1.09213E-08
369.81986	1.09876E-08
369.99267	1.10554E-08
370.16549	1.11246E-08
370.33830	1.11953E-08
370.51111	1.12673E-08
370.68393	1.13406E-08
370.85674	1.14151E-08
371.02955	1.14906E-08
371.20237	1.15672E-08
371.37518	1.16446E-08
371.54799	1.17229E-08
371.72080	1.18018E-08
371.89362	1.18812E-08
372.06643	1.19611E-08
372.23924	1.20412E-08
372.41206	1.21214E-08
372.58487	1.22015E-08
372.75768	1.22813E-08
372.93050	1.23606E-08
373.10331	1.24394E-08
373.27612	1.25174E-08
373.44893	1.25942E-08
373.62175	1.26699E-08
373.79456	1.27441E-08
373.96737	1.28167E-08
374.14019	1.28873E-08
374.31300	1.29559E-08
374.48581	1.30221E-08
374.65863	1.30858E-08
374.83144	1.31467E-08
375.00425	1.32046E-08
375.17706	1.32594E-08
375.34988	1.33109E-08
375.52269	1.33587E-08
375.69550	1.34028E-08
375.86832	1.34431E-08
376.04113	1.34793E-08
376.21394	1.35113E-08
376.38676	1.35389E-08
376.55957	1.35622E-08
376.73238	1.35810E-08
376.90520	1.35952E-08
377.07801	1.36048E-08
377.25082	1.36097E-08
377.42363	1.36100E-08
377.59645	1.36057E-08
377.76926	1.35968E-08
377.94207	1.35833E-08
378.11489	1.35653E-08
378.28770	1.35431E-08
378.46051	1.35165E-08
378.63333	1.34858E-08
378.80614	1.34511E-08
378.97895	1.34125E-08
379.15176	1.33703E-08
379.32458	1.33246E-08
379.49739	1.32757E-08
379.67020	1.32236E-08
379.84302	1.31687E-08
380.01583	1.31111E-08
380.18864	1.30511E-08
380.36146	1.29889E-08
380.53427	1.29248E-08
380.70708	1.28588E-08
380.87989	1.27913E-08
381.05271	1.27225E-08
381.22552	1.26526E-08
381.39833	1.25818E-08
381.57115	1.25103E-08
381.74396	1.24384E-08
381.91677	1.23662E-08
382.08959	1.22939E-08
382.26240	1.22217E-08
382.43521	1.21497E-08
382.60802	1.20782E-08
382.78084	1.20072E-08
382.95365	1.19370E-08
383.12646	1.18676E-08
383.29928	1.17993E-08
383.47209	1.17320E-08
383.64490	1.16660E-08
383.81772	1.16013E-08
383.99053	1.15380E-08
384.16334	1.14763E-08
384.33616	1.14161E-08
384.50897	1.13576E-08
384.68178	1.13007E-08
384.85459	1.12458E-08
385.02741	1.11926E-08
385.20022	1.11413E-08
385.37303	1.10919E-08
385.54585	1.10444E-08
385.71866	1.09989E-08
385.89147	1.09554E-08
386.06429	1.09139E-08
386.23710	1.08745E-08
386.40991	1.08371E-08
386.58272	1.08016E-08
386.75554	1.07683E-08
386.92835	1.07369E-08
387.10116	1.07075E-08
387.27398	1.06801E-08
387.44679	1.06547E-08
387.61960	1.06312E-08
387.79242	1.06097E-08
387.96523	1.05900E-08
388.13804	1.05722E-08
388.31085	1.05563E-08
388.48367	1.05422E-08
388.65648	1.05298E-08
388.82929	1.05192E-08
389.00211	1.05102E-08
389.17492	1.05029E-08
389.34773	1.04972E-08
389.52055	1.04929E-08
389.69336	1.04902E-08
389.86617	1.04890E-08
390.03898	1.04891E-08
390.21180	1.04905E-08
390.38461	1.04931E-08
390.55742	1.04970E-08
390.73024	1.05020E-08
390.90305	1.05081E-08
391.07586	1.05153E-08
391.24868	1.05233E-08
391.42149	1.05323E-08
391.59430	1.05421E-08
391.76711	1.05526E-08
391.93993	1.05638E-08
392.11274	1.05757E-08
392.28555	1.05881E-08
392.45837	1.06010E-08
392.63118	1.06143E-08
392.80399	1.06280E-08
392.97681	1.06419E-08
393.14962	1.06561E-08
393.32243	1.06705E-08
393.49525	1.06849E-08
393.66806	1.06994E-08
393.84087	1.07139E-08
394.01368	1.07282E-08
394.18650	1.07425E-08
394.35931	1.07565E-08
394.53212	1.07704E-08
394.70494	1.07839E-08
394.87775	1.07971E-08
395.05056	1.08099E-08
395.22338	1.08224E-08
395.39619	1.08344E-08
395.56900	1.08459E-08
395.74181	1.08568E-08
395.91463	1.08673E-08
396.08744	1.08772E-08
396.26025	1.08865E-08
396.43307	1.08952E-08
396.60588	1.09034E-08
396.77869	1.09109E-08
396.95151	1.09178E-08
397.12432	1.09241E-08
397.29713	1.09298E-08
397.46994	1.09348E-08
397.64276	1.09393E-08
397.81557	1.09432E-08
397.98838	1.09466E-08
398.16120	1.09494E-08
398.33401	1.09517E-08
398.50682	1.09534E-08
398.67964	1.09547E-08
398.85245	1.09556E-08
399.02526	1.09561E-08
399.19807	1.09562E-08
399.37089	1.09559E-08
399.54370	1.09553E-08
399.71651	1.09545E-08
399.88933	1.09535E-08
400.06214	1.09523E-08
400.23495	1.09509E-08
400.40777	1.09494E-08
400.58058	1.09479E-08
400.75339	1.09463E-08
400.92620	1.09447E-08
401.09902	1.09432E-08
401.27183	1.09419E-08
401.44464	1.09406E-08
401.61746	1.09395E-08
401.79027	1.09387E-08
401.96308	1.09380E-08
402.13590	1.09377E-08
402.30871	1.09377E-08
402.48152	1.09381E-08
402.65434	1.09388E-08
402.82715	1.09399E-08
402.99996	1.09415E-08
403.17277	1.09436E-08
403.34559	1.09461E-08
403.51840	1.09492E-08
403.69121	1.09528E-08
403.86403	1.09570E-08
404.03684	1.09617E-08
404.20965	1.09671E-08
404.38247	1.09730E-08
404.55528	1.09796E-08
404.72809	1.09868E-08
404.90090	1.09946E-08
405.07372	1.10030E-08
405.24653	1.10121E-08
405.41934	1.10218E-08
405.59216	1.10322E-08
405.76497	1.10432E-08
405.93778	1.10548E-08
406.11060	1.10670E-08
406.28341	1.10799E-08
406.45622	1.10933E-08
406.62903	1.11074E-08
406.80185	1.11220E-08
406.97466	1.11372E-08
407.14747	1.11529E-08
407.32029	1.11692E-08
407.49310	1.11860E-08
407.66591	1.12032E-08
407.83873	1.12209E-08
408.01154	1.12391E-08
408.18435	1.12576E-08
408.35716	1.12766E-08
408.52998	1.12959E-08
408.70279	1.13155E-08
408.87560	1.13355E-08
409.04842	1.13557E-08
409.22123	1.13762E-08
409.39404	1.13969E-08
409.56686	1.14178E-08
409.73967	1.14388E-08
409.91248	1.14599E-08
410.08529	1.14812E-08
410.25811	1.15025E-08
410.43092	1.15238E-08
410.60373	1.15452E-08
410.77655	1.15665E-08
410.94936	1.15878E-08
411.12217	1.16090E-08
411.29499	1.16302E-08
411.46780	1.16511E-08
411.64061	1.16719E-08
411.81343	1.16926E-08
411.98624	1.17130E-08
412.15905	1.17333E-08
412.33186	1.17532E-08
412.50468	1.17730E-08
412.67749	1.17925E-08
412.85030	1.18117E-08
413.02312	1.18305E-08
413.19593	1.18491E-08
413.36874	1.18674E-08
413.54156	1.18853E-08
413.71437	1.19028E-08
413.88718	1.19201E-08
414.05999	1.19370E-08
414.23281	1.19535E-08
414.40562	1.19697E-08
414.57843	1.19856E-08
414.75125	1.20012E-08
414.92406	1.20164E-08
415.09687	1.20313E-08
415.26969	1.20459E-08
415.44250	1.20602E-08
415.61531	1.20743E-08
415.78812	1.20880E-08
415.96094	1.21015E-08
416.13375	1.21148E-08
416.30656	1.21279E-08
416.47938	1.21408E-08
416.65219	1.21536E-08
416.82500	1.21661E-08
416.99782	1.21786E-08
417.17063	1.21910E-08
417.34344	1.22034E-08
417.51625	1.22156E-08
417.68907	1.22279E-08
417.86188	1.22401E-08
418.03469	1.22524E-08
418.20751	1.22648E-08
418.38032	1.22773E-08
418.55313	1.22900E-08
418.72595	1.23028E-08
418.89876	1.23158E-08
419.07157	1.23290E-08
419.24438	1.23425E-08
419.41720	1.23563E-08
419.59001	1.23704E-08
419.76282	1.23848E-08
419.93564	1.23997E-08
420.10845	1.24149E-08
420.28126	1.24306E-08
420.45408	1.24467E-08
420.62689	1.24634E-08
420.79970	1.24805E-08
420.97252	1.24983E-08
421.14533	1.25165E-08
421.31814	1.25355E-08
421.49095	1.25550E-08
421.66377	1.25752E-08
421.83658	1.25961E-08
422.00939	1.26176E-08
422.18221	1.26399E-08
422.35502	1.26629E-08
422.52783	1.26867E-08
422.70065	1.27113E-08
422.87346	1.27367E-08
423.04627	1.27629E-08
423.21908	1.27899E-08
423.39190	1.28177E-08
423.56471	1.28465E-08
423.73752	1.28760E-08
423.91034	1.29065E-08
424.08315	1.29379E-08
424.25596	1.29701E-08
424.42878	1.30033E-08
424.60159	1.30373E-08
424.77440	1.30723E-08
424.94721	1.31082E-08
425.12003	1.31449E-08
425.29284	1.31826E-08
425.46565	1.32212E-08
425.63847	1.32606E-08
425.81128	1.33010E-08
425.98409	1.33422E-08
426.15691	1.33842E-08
426.32972	1.34271E-08
426.50253	1.34708E-08
426.67534	1.35152E-08
426.84816	1.35605E-08
427.02097	1.36064E-08
427.19378	1.36531E-08
427.36660	1.37005E-08
427.53941	1.37485E-08
427.71222	1.37971E-08
427.88504	1.38463E-08
428.05785	1.38959E-08
428.23066	1.39460E-08
428.40347	1.39966E-08
428.57629	1.40475E-08
428.74910	1.40986E-08
428.92191	1.41501E-08
429.09473	1.42016E-08
429.26754	1.42533E-08
429.44035	1.43049E-08
429.61317	1.43566E-08
429.78598	1.44080E-08
429.95879	1.44593E-08
430.13161	1.45102E-08
430.30442	1.45608E-08
430.47723	1.46108E-08
430.65004	1.46602E-08
430.82286	1.47089E-08
430.99567	1.47569E-08
431.16848	1.48038E-08
431.34130	1.48498E-08
431.51411	1.48947E-08
431.68692	1.49383E-08
431.85974	1.49806E-08
432.03255	1.50214E-08
432.20536	1.50606E-08
432.37817	1.50982E-08
432.55099	1.51339E-08
432.72380	1.51677E-08
432.89661	1.51995E-08
433.06943	1.52292E-08
433.24224	1.52566E-08
433.41505	1.52816E-08
433.58787	1.53042E-08
433.76068	1.53243E-08
433.93349	1.53417E-08
434.10630	1.53565E-08
434.27912	1.53685E-08
434.45193	1.53775E-08
434.62474	1.53838E-08
434.79756	1.53870E-08
434.97037	1.53872E-08
435.14318	1.53843E-08
435.31600	1.53784E-08
435.48881	1.53694E-08
435.66162	1.53573E-08
435.83443	1.53420E-08
436.00725	1.53237E-08
436.18006	1.53023E-08
436.35287	1.52779E-08
436.52569	1.52505E-08
436.69850	1.52201E-08
436.87131	1.51868E-08
437.04413	1.51508E-08
437.21694	1.51120E-08
437.38975	1.50706E-08
437.56256	1.50267E-08
437.73538	1.49803E-08
437.90819	1.49316E-08
438.08100	1.48807E-08
438.25382	1.48277E-08
438.42663	1.47728E-08
438.59944	1.47160E-08
438.77226	1.46577E-08
438.94507	1.45977E-08
439.11788	1.45364E-08
439.29070	1.44739E-08
439.46351	1.44103E-08
439.63632	1.43457E-08
439.80913	1.42804E-08
439.98195	1.42145E-08
440.15476	1.41480E-08
440.32757	1.40812E-08
440.50039	1.40142E-08
440.67320	1.39473E-08
440.84601	1.38803E-08
441.01883	1.38136E-08
441.19164	1.37472E-08
441.36445	1.36814E-08
441.53726	1.36161E-08
441.71008	1.35516E-08
441.88289	1.34880E-08
442.05570	1.34253E-08
442.22852	1.33637E-08
442.40133	1.33032E-08
442.57414	1.32441E-08
442.74696	1.31863E-08
442.91977	1.31299E-08
443.09258	1.30751E-08
443.26539	1.30220E-08
443.43821	1.29705E-08
443.61102	1.29208E-08
443.78383	1.28729E-08
443.95665	1.28269E-08
444.12946	1.27829E-08
444.30227	1.27409E-08
444.47509	1.27010E-08
444.64790	1.26631E-08
444.82071	1.26275E-08
444.99352	1.25939E-08
445.16634	1.25627E-08
445.33915	1.25337E-08
445.51196	1.25069E-08
445.68478	1.24825E-08
445.85759	1.24604E-08
446.03040	1.24406E-08
446.20322	1.24233E-08
446.37603	1.24083E-08
446.54884	1.23956E-08
446.72165	1.23854E-08
446.89447	1.23775E-08
447.06728	1.23721E-08
447.24009	1.23690E-08
447.41291	1.23683E-08
447.58572	1.23700E-08
447.75853	1.23741E-08
447.93135	1.23805E-08
448.10416	1.23893E-08
448.27697	1.24004E-08
448.44979	1.24138E-08
448.62260	1.24295E-08
448.79541	1.24474E-08
448.96822	1.24675E-08
449.14104	1.24898E-08
449.31385	1.25142E-08
449.48666	1.25407E-08
449.65948	1.25693E-08
449.83229	1.25999E-08
450.00510	1.26324E-08
450.17792	1.26668E-08
450.35073	1.27031E-08
450.52354	1.27411E-08
450.69635	1.27808E-08
450.86917	1.28221E-08
451.04198	1.28650E-08
451.21479	1.29094E-08
451.38761	1.29552E-08
451.56042	1.30023E-08
451.73323	1.30506E-08
451.90605	1.31000E-08
452.07886	1.31504E-08
452.25167	1.32018E-08
452.42448	1.32540E-08
452.59730	1.33069E-08
452.77011	1.33604E-08
452.94292	1.34143E-08
453.11574	1.34687E-08
453.28855	1.35233E-08
453.46136	1.35780E-08
453.63418	1.36327E-08
453.80699	1.36874E-08
453.97980	1.37417E-08
454.15261	1.37958E-08
454.32543	1.38493E-08
454.49824	1.39023E-08
454.67105	1.39545E-08
454.84387	1.40059E-08
455.01668	1.40563E-08
455.18949	1.41057E-08
455.36231	1.41538E-08
455.53512	1.42007E-08
455.70793	1.42462E-08
455.88074	1.42903E-08
456.05356	1.43327E-08
456.22637	1.43735E-08
456.39918	1.44126E-08
456.57200	1.44499E-08
456.74481	1.44853E-08
456.91762	1.45187E-08
457.09044	1.45503E-08
457.26325	1.45798E-08
457.43606	1.46073E-08
457.60888	1.46327E-08
457.78169	1.46561E-08
457.95450	1.46774E-08
458.12731	1.46967E-08
458.30013	1.47139E-08
458.47294	1.47292E-08
458.64575	1.47424E-08
458.81857	1.47537E-08
458.99138	1.47632E-08
459.16419	1.47708E-08
459.33701	1.47766E-08
459.50982	1.47807E-08
459.68263	1.47832E-08
459.85544	1.47841E-08
460.02826	1.47836E-08
460.20107	1.47817E-08
460.37388	1.47786E-08
460.54670	1.47742E-08
460.71951	1.47688E-08
460.89232	1.47624E-08
461.06514	1.47552E-08
461.23795	1.47472E-08
461.41076	1.47384E-08
461.58357	1.47292E-08
461.75639	1.47195E-08
461.92920	1.47095E-08
462.10201	1.46992E-08
462.27483	1.46888E-08
462.44764	1.46783E-08
462.62045	1.46679E-08
462.79327	1.46577E-08
462.96608	1.46478E-08
463.13889	1.46381E-08
463.31170	1.46290E-08
463.48452	1.46203E-08
463.65733	1.46122E-08
463.83014	1.46048E-08
464.00296	1.45981E-08
464.17577	1.45923E-08
464.34858	1.45873E-08
464.52140	1.45833E-08
464.69421	1.45803E-08
464.86702	1.45784E-08
465.03983	1.45775E-08
465.21265	1.45778E-08
465.38546	1.45792E-08
465.55827	1.45819E-08
465.73109	1.45858E-08
465.90390	1.45910E-08
466.07671	1.45974E-08
466.24953	1.46052E-08
466.42234	1.46142E-08
466.59515	1.46246E-08
466.76797	1.46363E-08
466.94078	1.46494E-08
467.11359	1.46637E-08
467.28640	1.46794E-08
467.45922	1.46964E-08
467.63203	1.47146E-08
467.80484	1.47342E-08
467.97766	1.47549E-08
468.15047	1.47769E-08
468.32328	1.48001E-08
468.49610	1.48244E-08
468.66891	1.48498E-08
468.84172	1.48763E-08
469.01453	1.49038E-08
469.18735	1.49324E-08
469.36016	1.49619E-08
469.53297	1.49923E-08
469.70579	1.50236E-08
469.87860	1.50556E-08
470.05141	1.50884E-08
470.22423	1.51219E-08
470.39704	1.51560E-08
470.56985	1.51907E-08
470.74266	1.52259E-08
470.91548	1.52616E-08
471.08829	1.52976E-08
471.26110	1.53341E-08
471.43392	1.53708E-08
471.60673	1.54078E-08
471.77954	1.54449E-08
471.95236	1.54822E-08
472.12517	1.55196E-08
472.29798	1.55569E-08
472.47079	1.55943E-08
472.64361	1.56316E-08
472.81642	1.56688E-08
472.98923	1.57058E-08
473.16205	1.57427E-08
473.33486	1.57792E-08
473.50767	1.58156E-08
473.68049	1.58517E-08
473.85330	1.58874E-08
474.02611	1.59227E-08
474.19892	1.59577E-08
474.37174	1.59923E-08
474.54455	1.60266E-08
474.71736	1.60604E-08
474.89018	1.60939E-08
475.06299	1.61269E-08
475.23580	1.61595E-08
475.40862	1.61917E-08
475.58143	1.62235E-08
475.75424	1.62550E-08
475.92706	1.62861E-08
476.09987	1.63169E-08
476.27268	1.63473E-08
476.44549	1.63775E-08
476.61831	1.64073E-08
476.79112	1.64370E-08
476.96393	1.64664E-08
477.13675	1.64957E-08
477.30956	1.65248E-08
477.48237	1.65538E-08
477.65519	1.65827E-08
477.82800	1.66116E-08
478.00081	1.66405E-08
478.17362	1.66696E-08
478.34644	1.66986E-08
478.51925	1.67278E-08
478.69206	1.67572E-08
478.86488	1.67868E-08
479.03769	1.68166E-08
479.21050	1.68468E-08
479.38332	1.68772E-08
479.55613	1.69080E-08
479.72894	1.69392E-08
479.90175	1.69707E-08
480.07457	1.70028E-08
480.24738	1.70352E-08
480.42019	1.70682E-08
480.59301	1.71017E-08
480.76582	1.71357E-08
480.93863	1.71703E-08
481.11145	1.72053E-08
481.28426	1.72410E-08
481.45707	1.72772E-08
481.62988	1.73140E-08
481.80270	1.73514E-08
481.97551	1.73893E-08
482.14832	1.74278E-08
482.32114	1.74669E-08
482.49395	1.75064E-08
482.66676	1.75465E-08
482.83958	1.75870E-08
483.01239	1.76280E-08
483.18520	1.76695E-08
483.35801	1.77113E-08
483.53083	1.77535E-08
483.70364	1.77961E-08
483.87645	1.78390E-08
484.04927	1.78821E-08
484.22208	1.79254E-08
484.39489	1.79689E-08
484.56771	1.80126E-08
484.74052	1.80563E-08
484.91333	1.81000E-08
485.08615	1.81437E-08
485.25896	1.81872E-08
485.43177	1.82307E-08
485.60458	1.82739E-08
485.77740	1.83170E-08
485.95021	1.83597E-08
486.12302	1.84021E-08
486.29584	1.84440E-08
486.46865	1.84855E-08
486.64146	1.85266E-08
486.81428	1.85671E-08
486.98709	1.86070E-08
487.15990	1.86464E-08
487.33271	1.86851E-08
487.50553	1.87231E-08
487.67834	1.87604E-08
487.85115	1.87970E-08
488.02397	1.88328E-08
488.19678	1.88679E-08
488.36959	1.89022E-08
488.54241	1.89358E-08
488.71522	1.89685E-08
488.88803	1.90005E-08
489.06084	1.90318E-08
489.23366	1.90623E-08
489.40647	1.90921E-08
489.57928	1.91213E-08
489.75210	1.91498E-08
489.92491	1.91778E-08
490.09772	1.92052E-08
490.27054	1.92321E-08
490.44335	1.92585E-08
490.61616	1.92845E-08
490.78897	1.93103E-08
490.96179	1.93358E-08
491.13460	1.93612E-08
491.30741	1.93864E-08
491.48023	1.94116E-08
491.65304	1.94369E-08
491.82585	1.94623E-08
491.99867	1.94880E-08
492.17148	1.95140E-08
492.34429	1.95405E-08
492.51710	1.95675E-08
492.68992	1.95950E-08
492.86273	1.96233E-08
493.03554	1.96524E-08
493.20836	1.96823E-08
493.38117	1.97133E-08
493.55398	1.97453E-08
493.72680	1.97785E-08
493.89961	1.98129E-08
494.07242	1.98487E-08
494.24524	1.98859E-08
494.41805	1.99246E-08
494.59086	1.99650E-08
494.76367	2.00069E-08
494.93649	2.00506E-08
495.10930	2.00960E-08
495.28211	2.01434E-08
495.45493	2.01926E-08
495.62774	2.02438E-08
495.80055	2.02970E-08
495.97337	2.03521E-08
496.14618	2.04095E-08
496.31899	2.04689E-08
496.49180	2.05303E-08
496.66462	2.05940E-08
496.83743	2.06597E-08
497.01024	2.07275E-08
497.18306	2.07975E-08
497.35587	2.08694E-08
497.52868	2.09434E-08
497.70150	2.10195E-08
497.87431	2.10974E-08
498.04712	2.11772E-08
498.21993	2.12588E-08
498.39275	2.13421E-08
498.56556	2.14271E-08
498.73837	2.15135E-08
498.91119	2.16014E-08
499.08400	2.16905E-08
499.25681	2.17807E-08
499.42963	2.18719E-08
499.60244	2.19639E-08
499.77525	2.20565E-08
499.94806	2.21497E-08
500.12088	2.22430E-08
500.29369	2.23364E-08
500.46650	2.24296E-08
500.63932	2.25224E-08
500.81213	2.26146E-08
500.98494	2.27060E-08
501.15776	2.27962E-08
501.33057	2.28850E-08
501.50338	2.29722E-08
501.67619	2.30575E-08
501.84901	2.31406E-08
502.02182	2.32213E-08
502.19463	2.32993E-08
502.36745	2.33744E-08
502.54026	2.34462E-08
502.71307	2.35145E-08
502.88589	2.35791E-08
503.05870	2.36397E-08
503.23151	2.36961E-08
503.40433	2.37480E-08
503.57714	2.37953E-08
503.74995	2.38377E-08
503.92276	2.38752E-08
504.09558	2.39075E-08
504.26839	2.39344E-08
504.44120	2.39560E-08
504.61402	2.39719E-08
504.78683	2.39824E-08
504.95964	2.39872E-08
505.13246	2.39864E-08
505.30527	2.39798E-08
505.47808	2.39676E-08
505.65089	2.39498E-08
505.82371	2.39265E-08
505.99652	2.38978E-08
506.16933	2.38638E-08
506.34215	2.38246E-08
506.51496	2.37804E-08
506.68777	2.37314E-08
506.86059	2.36778E-08
507.03340	2.36198E-08
507.20621	2.35576E-08
507.37902	2.34915E-08
507.55184	2.34217E-08
507.72465	2.33485E-08
507.89746	2.32722E-08
508.07028	2.31931E-08
508.24309	2.31115E-08
508.41590	2.30276E-08
508.58872	2.29417E-08
508.76153	2.28541E-08
508.93434	2.27652E-08
509.10715	2.26751E-08
509.27997	2.25843E-08
509.45278	2.24930E-08
509.62559	2.24015E-08
509.79841	2.23099E-08
509.97122	2.22187E-08
510.14403	2.21280E-08
510.31685	2.20381E-08
510.48966	2.19492E-08
510.66247	2.18615E-08
510.83529	2.17754E-08
511.00810	2.16909E-08
511.18091	2.16083E-08
511.35372	2.15277E-08
511.52654	2.14493E-08
511.69935	2.13733E-08
511.87216	2.12999E-08
512.04498	2.12291E-08
512.21779	2.11612E-08
512.39060	2.10962E-08
512.56342	2.10341E-08
512.73623	2.09754E-08
512.90904	2.09197E-08
513.08185	2.08674E-08
513.25467	2.08184E-08
513.42748	2.07729E-08
513.60029	2.07309E-08
513.77311	2.06924E-08
513.94592	2.06575E-08
514.11873	2.06262E-08
514.29155	2.05984E-08
514.46436	2.05743E-08
514.63717	2.05538E-08
514.80998	2.05370E-08
514.98280	2.05237E-08
515.15561	2.05140E-08
515.32842	2.05079E-08
515.50124	2.05054E-08
515.67405	2.05063E-08
515.84686	2.05107E-08
516.01968	2.05184E-08
516.19249	2.05294E-08
516.36530	2.05438E-08
516.53811	2.05613E-08
516.71093	2.05819E-08
516.88374	2.06056E-08
517.05655	2.06322E-08
517.22937	2.06615E-08
517.40218	2.06937E-08
517.57499	2.07285E-08
517.74781	2.07658E-08
517.92062	2.08053E-08
518.09343	2.08472E-08
518.26624	2.08912E-08
518.43906	2.09371E-08
518.61187	2.09850E-08
518.78468	2.10344E-08
518.95750	2.10855E-08
519.13031	2.11379E-08
519.30312	2.11915E-08
519.47594	2.12463E-08
519.64875	2.13019E-08
519.82156	2.13582E-08
519.99438	2.14151E-08
520.16719	2.14725E-08
520.34000	2.15301E-08
520.51281	2.15877E-08
520.68563	2.16452E-08
520.85844	2.17024E-08
521.03125	2.17592E-08
521.20407	2.18154E-08
521.37688	2.18708E-08
521.54969	2.19253E-08
521.72251	2.19788E-08
521.89532	2.20309E-08
522.06813	2.20818E-08
522.24094	2.21311E-08
522.41376	2.21789E-08
522.58657	2.22248E-08
522.75938	2.22689E-08
522.93220	2.23111E-08
523.10501	2.23513E-08
523.27782	2.23893E-08
523.45064	2.24251E-08
523.62345	2.24586E-08
523.79626	2.24899E-08
523.96907	2.25187E-08
524.14189	2.25452E-08
524.31470	2.25693E-08
524.48751	2.25910E-08
524.66033	2.26103E-08
524.83314	2.26272E-08
525.00595	2.26417E-08
525.17877	2.26539E-08
525.35158	2.26638E-08
525.52439	2.26715E-08
525.69720	2.26770E-08
525.87002	2.26804E-08
526.04283	2.26817E-08
526.21564	2.26811E-08
526.38846	2.26786E-08
526.56127	2.26744E-08
526.73408	2.26685E-08
526.90690	2.26611E-08
527.07971	2.26522E-08
527.25252	2.26420E-08
527.42533	2.26305E-08
527.59815	2.26180E-08
527.77096	2.26044E-08
527.94377	2.25900E-08
528.11659	2.25748E-08
528.28940	2.25589E-08
528.46221	2.25426E-08
528.63503	2.25259E-08
528.80784	2.25088E-08
528.98065	2.24916E-08
529.15347	2.24742E-08
529.32628	2.24568E-08
529.49909	2.24396E-08
529.67190	2.24225E-08
529.84472	2.24057E-08
530.01753	2.23893E-08
530.19034	2.23733E-08
530.36316	2.23580E-08
530.53597	2.23431E-08
530.70878	2.23289E-08
530.88160	2.23155E-08
531.05441	2.23027E-08
531.22722	2.22908E-08
531.40003	2.22797E-08
531.57285	2.22696E-08
531.74566	2.22603E-08
531.91847	2.22520E-08
532.09129	2.22445E-08
532.26410	2.22381E-08
532.43691	2.22327E-08
532.60973	2.22281E-08
532.78254	2.22245E-08
532.95535	2.22220E-08
533.12816	2.22203E-08
533.30098	2.22195E-08
533.47379	2.22197E-08
533.64660	2.22206E-08
533.81942	2.22225E-08
533.99223	2.22251E-08
534.16504	2.22285E-08
534.33786	2.22327E-08
534.51067	2.22375E-08
534.68348	2.22429E-08
534.85629	2.22490E-08
535.02911	2.22557E-08
535.20192	2.22628E-08
535.37473	2.22703E-08
535.54755	2.22782E-08
535.72036	2.22864E-08
535.89317	2.22950E-08
536.06599	2.23038E-08
536.23880	2.23127E-08
536.41161	2.23217E-08
536.58442	2.23309E-08
536.75724	2.23401E-08
536.93005	2.23492E-08
537.10286	2.23582E-08
537.27568	2.23672E-08
537.44849	2.23759E-08
537.62130	2.23845E-08
537.79412	2.23929E-08
537.96693	2.24009E-08
538.13974	2.24087E-08
538.31256	2.24161E-08
538.48537	2.24231E-08
538.65818	2.24298E-08
538.83099	2.24361E-08
539.00381	2.24421E-08
539.17662	2.24476E-08
539.34943	2.24527E-08
539.52225	2.24574E-08
539.69506	2.24617E-08
539.86787	2.24656E-08
540.04069	2.24691E-08
540.21350	2.24722E-08
540.38631	2.24751E-08
540.55912	2.24775E-08
540.73194	2.24797E-08
540.90475	2.24816E-08
541.07756	2.24834E-08
541.25038	2.24849E-08
541.42319	2.24863E-08
541.59600	2.24874E-08
541.76882	2.24887E-08
541.94163	2.24898E-08
542.11444	2.24911E-08
542.28725	2.24923E-08
542.46007	2.24937E-08
542.63288	2.24953E-08
542.80569	2.24971E-08
542.97851	2.24992E-08
543.15132	2.25017E-08
543.32413	2.25045E-08
543.49695	2.25078E-08
543.66976	2.25116E-08
543.84257	2.25160E-08
544.01538	2.25210E-08
544.18820	2.25265E-08
544.36101	2.25328E-08
544.53382	2.25399E-08
544.70664	2.25477E-08
544.87945	2.25563E-08
545.05226	2.25660E-08
545.22508	2.25763E-08
545.39789	2.25877E-08
545.57070	2.26000E-08
545.74351	2.26133E-08
545.91633	2.26277E-08
546.08914	2.26430E-08
546.26195	2.26594E-08
546.43477	2.26769E-08
546.60758	2.26954E-08
546.78039	2.27150E-08
546.95321	2.27357E-08
547.12602	2.27575E-08
547.29883	2.27804E-08
547.47165	2.28044E-08
547.64446	2.28295E-08
547.81727	2.28556E-08
547.99008	2.28827E-08
548.16290	2.29108E-08
548.33571	2.29400E-08
548.50852	2.29701E-08
548.68134	2.30011E-08
548.85415	2.30331E-08
549.02696	2.30658E-08
549.19978	2.30994E-08
549.37259	2.31338E-08
549.54540	2.31689E-08
549.71821	2.32047E-08
549.89103	2.32411E-08
550.06384	2.32781E-08
550.23665	2.33157E-08
550.40947	2.33538E-08
550.58228	2.33923E-08
550.75509	2.34311E-08
550.92791	2.34703E-08
551.10072	2.35098E-08
551.27353	2.35494E-08
551.44634	2.35892E-08
551.61916	2.36291E-08
551.79197	2.36691E-08
551.96478	2.37090E-08
552.13760	2.37487E-08
552.31041	2.37885E-08
552.48322	2.38280E-08
552.65604	2.38673E-08
552.82885	2.39064E-08
553.00166	2.39452E-08
553.17447	2.39837E-08
553.34729	2.40218E-08
553.52010	2.40594E-08
553.69291	2.40966E-08
553.86573	2.41334E-08
554.03854	2.41697E-08
554.21135	2.42054E-08
554.38417	2.42406E-08
554.55698	2.42753E-08
554.72979	2.43095E-08
554.90260	2.43431E-08
555.07542	2.43762E-08
555.24823	2.44087E-08
555.42104	2.44407E-08
555.59386	2.44723E-08
555.76667	2.45033E-08
555.93948	2.45339E-08
556.11230	2.45639E-08
556.28511	2.45936E-08
556.45792	2.46229E-08
556.63074	2.46519E-08
556.80355	2.46805E-08
556.97636	2.47088E-08
557.14917	2.47369E-08
557.32199	2.47648E-08
557.49480	2.47925E-08
557.66761	2.48201E-08
557.84043	2.48476E-08
558.01324	2.48752E-08
558.18605	2.49027E-08
558.35887	2.49304E-08
558.53168	2.49583E-08
558.70449	2.49862E-08
558.87730	2.50144E-08
559.05012	2.50430E-08
559.22293	2.50718E-08
559.39574	2.51011E-08
559.56856	2.51307E-08
559.74137	2.51608E-08
559.91418	2.51914E-08
560.08700	2.52226E-08
560.25981	2.52543E-08
560.43262	2.52866E-08
560.60543	2.53196E-08
560.77825	2.53533E-08
560.95106	2.53876E-08
561.12387	2.54226E-08
561.29669	2.54582E-08
561.46950	2.54946E-08
561.64231	2.55318E-08
561.81513	2.55697E-08
561.98794	2.56082E-08
562.16075	2.56475E-08
562.33356	2.56875E-08
562.50638	2.57282E-08
562.67919	2.57696E-08
562.85200	2.58116E-08
563.02482	2.58544E-08
563.19763	2.58975E-08
563.37044	2.59413E-08
563.54326	2.59855E-08
563.71607	2.60303E-08
563.88888	2.60754E-08
564.06169	2.61209E-08
564.23451	2.61667E-08
564.40732	2.62128E-08
564.58013	2.62590E-08
564.75295	2.63054E-08
564.92576	2.63518E-08
565.09857	2.63981E-08
565.27139	2.64444E-08
565.44420	2.64906E-08
565.61701	2.65364E-08
565.78983	2.65819E-08
565.96264	2.66271E-08
566.13545	2.66718E-08
566.30826	2.67160E-08
566.48108	2.67596E-08
566.65389	2.68024E-08
566.82670	2.68446E-08
566.99952	2.68859E-08
567.17233	2.69264E-08
567.34514	2.69660E-08
567.51796	2.70046E-08
567.69077	2.70421E-08
567.86358	2.70786E-08
568.03639	2.71139E-08
568.20921	2.71480E-08
568.38202	2.71808E-08
568.55483	2.72126E-08
568.72765	2.72430E-08
568.90046	2.72721E-08
569.07327	2.73001E-08
569.24609	2.73266E-08
569.41890	2.73518E-08
569.59171	2.73759E-08
569.76452	2.73986E-08
569.93734	2.74201E-08
570.11015	2.74405E-08
570.28296	2.74596E-08
570.45578	2.74776E-08
570.62859	2.74945E-08
570.80140	2.75105E-08
570.97422	2.75254E-08
571.14703	2.75394E-08
571.31984	2.75528E-08
571.49265	2.75652E-08
571.66547	2.75771E-08
571.83828	2.75884E-08
572.01109	2.75991E-08
572.18391	2.76096E-08
572.35672	2.76197E-08
572.52953	2.76297E-08
572.70235	2.76396E-08
572.87516	2.76495E-08
573.04797	2.76595E-08
573.22078	2.76699E-08
573.39360	2.76805E-08
573.56641	2.76917E-08
573.73922	2.77033E-08
573.91204	2.77156E-08
574.08485	2.77287E-08
574.25766	2.77427E-08
574.43048	2.77577E-08
574.60329	2.77738E-08
574.77610	2.77910E-08
574.94892	2.78095E-08
575.12173	2.78294E-08
575.29454	2.78507E-08
575.46735	2.78736E-08
575.64017	2.78979E-08
575.81298	2.79241E-08
575.98579	2.79520E-08
576.15861	2.79817E-08
576.33142	2.80133E-08
576.50423	2.80469E-08
576.67705	2.80824E-08
576.84986	2.81199E-08
577.02267	2.81593E-08
577.19548	2.82010E-08
577.36830	2.82447E-08
577.54111	2.82905E-08
577.71392	2.83384E-08
577.88674	2.83883E-08
578.05955	2.84403E-08
578.23236	2.84944E-08
578.40518	2.85505E-08
578.57799	2.86088E-08
578.75080	2.86689E-08
578.92361	2.87309E-08
579.09643	2.87949E-08
579.26924	2.88607E-08
579.44205	2.89281E-08
579.61487	2.89973E-08
579.78768	2.90681E-08
579.96049	2.91404E-08
580.13331	2.92141E-08
580.30612	2.92890E-08
580.47893	2.93653E-08
580.65174	2.94426E-08
580.82456	2.95208E-08
580.99737	2.96000E-08
581.17018	2.96800E-08
581.34300	2.97605E-08
581.51581	2.98415E-08
581.68862	2.99228E-08
581.86144	3.00044E-08
582.03425	3.00861E-08
582.20706	3.01676E-08
582.37987	3.02490E-08
582.55269	3.03301E-08
582.72550	3.04107E-08
582.89831	3.04907E-08
583.07113	3.05700E-08
583.24394	3.06484E-08
583.41675	3.07259E-08
583.58957	3.08021E-08
583.76238	3.08772E-08
583.93519	3.09509E-08
584.10801	3.10234E-08
584.28082	3.10941E-08
584.45363	3.11634E-08
584.62644	3.12309E-08
584.79926	3.12967E-08
584.97207	3.13606E-08
585.14488	3.14227E-08
585.31770	3.14830E-08
585.49051	3.15412E-08
585.66332	3.15976E-08
585.83614	3.16519E-08
586.00895	3.17044E-08
586.18176	3.17549E-08
586.35457	3.18034E-08
586.52739	3.18501E-08
586.70020	3.18951E-08
586.87301	3.19383E-08
587.04583	3.19797E-08
587.21864	3.20195E-08
587.39145	3.20578E-08
587.56427	3.20946E-08
587.73708	3.21303E-08
587.90989	3.21646E-08
588.08270	3.21978E-08
588.25552	3.22300E-08
588.42833	3.22616E-08
588.60114	3.22923E-08
588.77396	3.23227E-08
588.94677	3.23527E-08
589.11958	3.23825E-08
589.29240	3.24121E-08
589.46521	3.24420E-08
589.63802	3.24719E-08
589.81083	3.25024E-08
589.98365	3.25336E-08
590.15646	3.25654E-08
590.32927	3.25983E-08
590.50209	3.26321E-08
590.67490	3.26672E-08
590.84771	3.27037E-08
591.02053	3.27418E-08
591.19334	3.27816E-08
591.36615	3.28232E-08
591.53896	3.28668E-08
591.71178	3.29124E-08
591.88459	3.29602E-08
592.05740	3.30105E-08
592.23022	3.30632E-08
592.40303	3.31182E-08
592.57584	3.31759E-08
592.74866	3.32364E-08
592.92147	3.32997E-08
593.09428	3.33658E-08
593.26710	3.34349E-08
593.43991	3.35069E-08
593.61272	3.35816E-08
593.78553	3.36595E-08
593.95835	3.37404E-08
594.13116	3.38243E-08
594.30397	3.39112E-08
594.47679	3.40008E-08
594.64960	3.40938E-08
594.82241	3.41893E-08
594.99523	3.42877E-08
595.16804	3.43889E-08
595.34085	3.44928E-08
595.51366	3.45992E-08
595.68648	3.47080E-08
595.85929	3.48193E-08
596.03210	3.49329E-08
596.20492	3.50484E-08
596.37773	3.51660E-08
596.55054	3.52851E-08
596.72336	3.54061E-08
596.89617	3.55284E-08
597.06898	3.56520E-08
597.24179	3.57767E-08
597.41461	3.59022E-08
597.58742	3.60285E-08
597.76023	3.61552E-08
597.93305	3.62821E-08
598.10586	3.64089E-08
598.27867	3.65355E-08
598.45149	3.66617E-08
598.62430	3.67872E-08
598.79711	3.69119E-08
598.96992	3.70355E-08
599.14274	3.71576E-08
599.31555	3.72780E-08
599.48836	3.73967E-08
599.66118	3.75135E-08
599.83399	3.76281E-08
600.00680	3.77401E-08
600.17962	3.78499E-08
600.35243	3.79565E-08
600.52524	3.80604E-08
600.69805	3.81613E-08
600.87087	3.82590E-08
601.04368	3.83534E-08
601.21649	3.84443E-08
601.38931	3.85319E-08
601.56212	3.86156E-08
601.73493	3.86961E-08
601.90775	3.87727E-08
602.08056	3.88457E-08
602.25337	3.89150E-08
602.42619	3.89809E-08
602.59900	3.90433E-08
602.77181	3.91020E-08
602.94462	3.91574E-08
603.11744	3.92094E-08
603.29025	3.92582E-08
603.46306	3.93040E-08
603.63588	3.93469E-08
603.80869	3.93870E-08
603.98150	3.94247E-08
604.15432	3.94599E-08
604.32713	3.94930E-08
604.49994	3.95241E-08
604.67275	3.95535E-08
604.84557	3.95814E-08
605.01838	3.96079E-08
605.19119	3.96335E-08
605.36401	3.96585E-08
605.53682	3.96826E-08
605.70963	3.97068E-08
605.88245	3.97307E-08
606.05526	3.97548E-08
606.22807	3.97797E-08
606.40088	3.98052E-08
606.57370	3.98317E-08
606.74651	3.98595E-08
606.91932	3.98886E-08
607.09214	3.99198E-08
607.26495	3.99526E-08
607.43776	3.99878E-08
607.61058	4.00251E-08
607.78339	4.00650E-08
607.95620	4.01079E-08
608.12901	4.01534E-08
608.30183	4.02019E-08
608.47464	4.02538E-08
608.64745	4.03093E-08
608.82027	4.03678E-08
608.99308	4.04303E-08
609.16589	4.04966E-08
609.33871	4.05663E-08
609.51152	4.06400E-08
609.68433	4.07180E-08
609.85714	4.07995E-08
610.02996	4.08853E-08
610.20277	4.09747E-08
610.37558	4.10684E-08
610.54840	4.11661E-08
610.72121	4.12677E-08
610.89402	4.13731E-08
611.06684	4.14823E-08
611.23965	4.15955E-08
611.41246	4.17122E-08
611.58528	4.18322E-08
611.75809	4.19559E-08
611.93090	4.20829E-08
612.10371	4.22129E-08
612.27653	4.23457E-08
612.44934	4.24816E-08
612.62215	4.26197E-08
612.79497	4.27604E-08
612.96778	4.29032E-08
613.14059	4.30481E-08
613.31341	4.31944E-08
613.48622	4.33423E-08
613.65903	4.34913E-08
613.83184	4.36417E-08
614.00466	4.37922E-08
614.17747	4.39433E-08
614.35028	4.40945E-08
614.52310	4.42459E-08
614.69591	4.43965E-08
614.86872	4.45467E-08
615.04154	4.46958E-08
615.21435	4.48442E-08
615.38716	4.49910E-08
615.55997	4.51359E-08
615.73279	4.52791E-08
615.90560	4.54207E-08
616.07841	4.55595E-08
616.25123	4.56962E-08
616.42404	4.58300E-08
616.59685	4.59616E-08
616.76967	4.60897E-08
616.94248	4.62151E-08
617.11529	4.63378E-08
617.28810	4.64568E-08
617.46092	4.65730E-08
617.63373	4.66861E-08
617.80654	4.67959E-08
617.97936	4.69026E-08
618.15217	4.70066E-08
618.32498	4.71069E-08
618.49780	4.72048E-08
618.67061	4.73002E-08
618.84342	4.73925E-08
619.01623	4.74826E-08
619.18905	4.75709E-08
619.36186	4.76568E-08
619.53467	4.77408E-08
619.70749	4.78237E-08
619.88030	4.79053E-08
620.05311	4.79861E-08
620.22593	4.80661E-08
620.39874	4.81462E-08
620.57155	4.82260E-08
620.74437	4.83063E-08
620.91718	4.83872E-08
621.08999	4.84695E-08
621.26280	4.85534E-08
621.43562	4.86388E-08
621.60843	4.87267E-08
621.78124	4.88171E-08
621.95406	4.89106E-08
622.12687	4.90075E-08
622.29968	4.91082E-08
622.47250	4.92127E-08
622.64531	4.93218E-08
622.81812	4.94359E-08
622.99093	4.95550E-08
623.16375	4.96796E-08
623.33656	4.98098E-08
623.50937	4.99466E-08
623.68219	5.00893E-08
623.85500	5.02392E-08
624.02781	5.03956E-08
624.20063	5.05592E-08
624.37344	5.07300E-08
624.54625	5.09088E-08
624.71906	5.10955E-08
624.89188	5.12901E-08
625.06469	5.14928E-08
625.23750	5.17039E-08
625.41032	5.19230E-08
625.58313	5.21505E-08
625.75594	5.23864E-08
625.92876	5.26313E-08
626.10157	5.28840E-08
626.27438	5.31457E-08
626.44719	5.34155E-08
626.62001	5.36934E-08
626.79282	5.39798E-08
626.96563	5.42736E-08
627.13845	5.45754E-08
627.31126	5.48846E-08
627.48407	5.52017E-08
627.65689	5.55249E-08
627.82970	5.58551E-08
628.00251	5.61914E-08
628.17532	5.65335E-08
628.34814	5.68810E-08
628.52095	5.72333E-08
628.69376	5.75899E-08
628.86658	5.79502E-08
629.03939	5.83138E-08
629.21220	5.86799E-08
629.38502	5.90478E-08
629.55783	5.94170E-08
629.73064	5.97867E-08
629.90346	6.01563E-08
630.07627	6.05249E-08
630.24908	6.08918E-08
630.42189	6.12561E-08
630.59471	6.16171E-08
630.76752	6.19741E-08
630.94033	6.23264E-08
631.11315	6.26730E-08
631.28596	6.30134E-08
631.45877	6.33467E-08
631.63159	6.36725E-08
631.80440	6.39896E-08
631.97721	6.42979E-08
632.15002	6.45965E-08
632.32284	6.48850E-08
632.49565	6.51629E-08
632.66846	6.54298E-08
632.84128	6.56852E-08
633.01409	6.59290E-08
633.18690	6.61610E-08
633.35972	6.63807E-08
633.53253	6.65885E-08
633.70534	6.67841E-08
633.87815	6.69678E-08
634.05097	6.71395E-08
634.22378	6.72994E-08
634.39659	6.74481E-08
634.56941	6.75855E-08
634.74222	6.77125E-08
634.91503	6.78295E-08
635.08785	6.79371E-08
635.26066	6.80359E-08
635.43347	6.81266E-08
635.60628	6.82098E-08
635.77910	6.82867E-08
635.95191	6.83577E-08
636.12472	6.84242E-08
636.29754	6.84865E-08
636.47035	6.85461E-08
636.64316	6.86036E-08
636.81598	6.86603E-08
636.98879	6.87168E-08
637.16160	6.87743E-08
637.33441	6.88336E-08
637.50723	6.88961E-08
637.68004	6.89625E-08
637.85285	6.90339E-08
638.02567	6.91112E-08
638.19848	6.91956E-08
638.37129	6.92877E-08
638.54411	6.93887E-08
638.71692	6.94993E-08
638.88973	6.96206E-08
639.06255	6.97532E-08
639.23536	6.98982E-08
639.40817	7.00562E-08
639.58098	7.02281E-08
639.75380	7.04145E-08
639.92661	7.06164E-08
640.09942	7.08343E-08
640.27224	7.10687E-08
640.44505	7.13202E-08
640.61786	7.15895E-08
640.79068	7.18773E-08
640.96349	7.21838E-08
641.13630	7.25095E-08
641.30911	7.28547E-08
641.48193	7.32200E-08
641.65474	7.36056E-08
641.82755	7.40117E-08
642.00037	7.44387E-08
642.17318	7.48864E-08
642.34599	7.53554E-08
642.51881	7.58452E-08
642.69162	7.63563E-08
642.86443	7.68884E-08
643.03724	7.74412E-08
643.21006	7.80148E-08
643.38287	7.86087E-08
643.55568	7.92225E-08
643.72850	7.98558E-08
643.90131	8.05081E-08
644.07412	8.11782E-08
644.24694	8.18660E-08
644.41975	8.25705E-08
644.59256	8.32906E-08
644.76537	8.40255E-08
644.93819	8.47738E-08
645.11100	8.55342E-08
645.28381	8.63055E-08
645.45663	8.70861E-08
645.62944	8.78748E-08
645.80225	8.86696E-08
645.97507	8.94688E-08
646.14788	9.02705E-08
646.32069	9.10730E-08
646.49351	9.18740E-08
646.66632	9.26719E-08
646.83913	9.34640E-08
647.01194	9.42487E-08
647.18476	9.50234E-08
647.35757	9.57862E-08
647.53038	9.65347E-08
647.70320	9.72671E-08
647.87601	9.79810E-08
648.04882	9.86747E-08
648.22164	9.93459E-08
648.39445	9.99928E-08
648.56726	1.00614E-07
648.74007	1.01208E-07
648.91289	1.01773E-07
649.08570	1.02308E-07
649.25851	1.02813E-07
649.43133	1.03285E-07
649.60414	1.03726E-07
649.77695	1.04133E-07
649.94977	1.04509E-07
650.12258	1.04851E-07
650.29539	1.05161E-07
650.46820	1.05440E-07
650.64102	1.05688E-07
650.81383	1.05906E-07
650.98664	1.06096E-07
651.15946	1.06260E-07
651.33227	1.06397E-07
651.50508	1.06512E-07
651.67790	1.06605E-07
651.85071	1.06679E-07
652.02352	1.06735E-07
652.19633	1.06776E-07
652.36915	1.06806E-07
652.54196	1.06825E-07
652.71477	1.06838E-07
652.88759	1.06844E-07
653.06040	1.06849E-07
653.23321	1.06855E-07
653.40603	1.06863E-07
653.57884	1.06876E-07
653.75165	1.06897E-07
653.92446	1.06928E-07
654.09728	1.06972E-07
654.27009	1.07031E-07
654.44290	1.07108E-07
654.61572	1.07203E-07
654.78853	1.07321E-07
654.96134	1.07461E-07
655.13416	1.07628E-07
655.30697	1.07822E-07
655.47978	1.08045E-07
655.65260	1.08299E-07
655.82541	1.08585E-07
655.99822	1.08906E-07
656.17103	1.09262E-07
656.34385	1.09655E-07
656.51666	1.10087E-07
656.68947	1.10558E-07
656.86229	1.11069E-07
657.03510	1.11622E-07
657.20791	1.12218E-07
657.38073	1.12856E-07
657.55354	1.13539E-07
657.72635	1.14266E-07
657.89916	1.15037E-07
658.07198	1.15854E-07
658.24479	1.16716E-07
658.41760	1.17623E-07
658.59042	1.18576E-07
658.76323	1.19573E-07
658.93604	1.20614E-07
659.10886	1.21699E-07
659.28167	1.22826E-07
659.45448	1.23995E-07
659.62729	1.25202E-07
659.80011	1.26448E-07
659.97292	1.27730E-07
660.14573	1.29046E-07
660.31855	1.30392E-07
660.49136	1.31767E-07
660.66417	1.33167E-07
660.83699	1.34587E-07
661.00980	1.36025E-07
661.18261	1.37476E-07
661.35542	1.38936E-07
661.52824	1.40399E-07
661.70105	1.41860E-07
661.87386	1.43314E-07
662.04668	1.44755E-07
662.21949	1.46177E-07
662.39230	1.47574E-07
662.56512	1.48940E-07
662.73793	1.50269E-07
662.91074	1.51554E-07
663.08355	1.52788E-07
663.25637	1.53967E-07
663.42918	1.55084E-07
663.60199	1.56134E-07
663.77481	1.57111E-07
663.94762	1.58011E-07
664.12043	1.58830E-07
664.29325	1.59564E-07
664.46606	1.60210E-07
664.63887	1.60766E-07
664.81169	1.61231E-07
664.98450	1.61602E-07
665.15731	1.61882E-07
665.33012	1.62071E-07
665.50294	1.62170E-07
665.67575	1.62181E-07
665.84856	1.62108E-07
666.02138	1.61956E-07
666.19419	1.61726E-07
666.36700	1.61425E-07
666.53982	1.61059E-07
666.71263	1.60634E-07
666.88544	1.60154E-07
667.05825	1.59628E-07
667.23107	1.59061E-07
667.40388	1.58462E-07
667.57669	1.57836E-07
667.74951	1.57191E-07
667.92232	1.56534E-07
668.09513	1.55872E-07
668.26795	1.55212E-07
668.44076	1.54560E-07
668.61357	1.53922E-07
668.78638	1.53306E-07
668.95920	1.52717E-07
669.13201	1.52162E-07
669.30482	1.51646E-07
669.47764	1.51173E-07
669.65045	1.50751E-07
669.82326	1.50384E-07
669.99608	1.50076E-07
670.16889	1.49833E-07
670.34170	1.49659E-07
670.51451	1.49558E-07
670.68733	1.49535E-07
670.86014	1.49593E-07
671.03295	1.49739E-07
671.20577	1.49974E-07
671.37858	1.50304E-07
671.55139	1.50732E-07
671.72421	1.51263E-07
671.89702	1.51901E-07
672.06983	1.52651E-07
672.24264	1.53516E-07
672.41546	1.54501E-07
672.58827	1.55612E-07
672.76108	1.56852E-07
672.93390	1.58227E-07
673.10671	1.59743E-07
673.27952	1.61403E-07
673.45234	1.63216E-07
673.62515	1.65187E-07
673.79796	1.67320E-07
673.97078	1.69625E-07
674.14359	1.72107E-07
674.31640	1.74772E-07
674.48921	1.77630E-07
674.66203	1.80687E-07
674.83484	1.83951E-07
675.00765	1.87431E-07
675.18047	1.91135E-07
675.35328	1.95070E-07
675.52609	1.99246E-07
675.69891	2.03671E-07
675.87172	2.08355E-07
676.04453	2.13301E-07
676.21734	2.18522E-07
676.39016	2.24021E-07
676.56297	2.29807E-07
676.73578	2.35884E-07
676.90860	2.42254E-07
677.08141	2.48921E-07
677.25422	2.55884E-07
677.42704	2.63142E-07
677.59985	2.70687E-07
677.77266	2.78511E-07
677.94547	2.86603E-07
678.11829	2.94943E-07
678.29110	3.03513E-07
678.46391	3.12283E-07
678.63673	3.21217E-07
678.80954	3.30280E-07
678.98235	3.39422E-07
679.15517	3.48592E-07
679.32798	3.57732E-07
679.50079	3.66771E-07
679.67360	3.75646E-07
679.84642	3.84275E-07
680.01923	3.92580E-07
680.19204	4.00480E-07
680.36486	4.07893E-07
680.53767	4.14738E-07
680.71048	4.20941E-07
680.88330	4.26430E-07
681.05611	4.31146E-07
681.22892	4.35038E-07
681.40173	4.38070E-07
681.57455	4.40218E-07
681.74736	4.41473E-07
681.92017	4.41842E-07
682.09299	4.41350E-07
682.26580	4.40030E-07
682.43861	4.37933E-07
682.61143	4.35119E-07
682.78424	4.31656E-07
682.95705	4.27621E-07
683.12987	4.23092E-07
683.30268	4.18151E-07
683.47549	4.12879E-07
683.64830	4.07357E-07
683.82112	4.01659E-07
683.99393	3.95857E-07
684.16674	3.90018E-07
684.33956	3.84202E-07
684.51237	3.78463E-07
684.68518	3.72851E-07
684.85800	3.67407E-07
685.03081	3.62170E-07
685.20362	3.57173E-07
685.37643	3.52442E-07
685.54925	3.48007E-07
685.72206	3.43881E-07
685.89487	3.40085E-07
686.06769	3.36637E-07
686.24050	3.33543E-07
686.41331	3.30826E-07
686.58613	3.28486E-07
686.75894	3.26542E-07
686.93175	3.25000E-07
687.10456	3.23870E-07
687.27738	3.23164E-07
687.45019	3.22894E-07
687.62300	3.23071E-07
687.79582	3.23706E-07
687.96863	3.24823E-07
688.14144	3.26431E-07
688.31426	3.28554E-07
688.48707	3.31216E-07
688.65988	3.34438E-07
688.83269	3.38251E-07
689.00551	3.42690E-07
689.17832	3.47789E-07
689.35113	3.53590E-07
689.52395	3.60142E-07
689.69676	3.67499E-07
689.86957	3.75722E-07
690.04239	3.84878E-07
690.21520	3.95045E-07
690.38801	4.06313E-07
690.56082	4.18781E-07
690.73364	4.32559E-07
690.90645	4.47775E-07
691.07926	4.64573E-07
691.25208	4.83114E-07
691.42489	5.03580E-07
691.59770	5.26177E-07
691.77052	5.51132E-07
691.94333	5.78703E-07
692.11614	6.09175E-07
692.28896	6.42856E-07
692.46177	6.80083E-07
692.63458	7.21213E-07
692.80739	7.66612E-07
692.98021	8.16639E-07
693.15302	8.71613E-07
693.32583	9.31786E-07
693.49865	9.97270E-07
693.67146	1.06798E-06
693.84427	1.14353E-06
694.01709	1.22316E-06
694.18990	1.30564E-06
694.36271	1.38927E-06
694.53552	1.47192E-06
694.70834	1.55128E-06
694.88115	1.62512E-06
695.05396	1.69165E-06
695.22678	1.74992E-06
695.39959	1.79989E-06
695.57240	1.84251E-06
695.74522	1.87949E-06
695.91803	1.91301E-06
696.09084	1.94548E-06
696.26365	1.97928E-06
696.43647	2.01669E-06
696.60928	2.05972E-06
696.78209	2.11019E-06
696.95491	2.16957E-06
697.12772	2.23891E-06
697.30053	2.31859E-06
697.47335	2.40800E-06
697.64616	2.50469E-06
697.81897	2.60365E-06
697.99178	2.69624E-06
698.16460	2.76980E-06
698.33741	2.80893E-06
698.51022	2.79954E-06
698.68304	2.73434E-06
698.85585	2.61705E-06
699.02866	2.46110E-06
699.20148	2.28423E-06
699.37429	2.10257E-06
699.54710	1.92761E-06
699.71991	1.76591E-06
699.89273	1.62028E-06
700.06554	1.49116E-06
700.23835	1.37769E-06
700.41117	1.27844E-06
700.58398	1.19181E-06
700.75679	1.11623E-06
700.92961	1.05028E-06
701.10242	9.92696E-07
701.27523	9.42400E-07
701.44805	8.98473E-07
701.62086	8.60125E-07
701.79367	8.26708E-07
701.96648	7.97669E-07
702.13930	7.72553E-07
702.31211	7.50975E-07
702.48492	7.32625E-07
702.65774	7.17243E-07
702.83055	7.04621E-07
703.00336	6.94595E-07
703.17618	6.87047E-07
703.34899	6.81885E-07
703.52180	6.79060E-07
703.69461	6.78551E-07
703.86743	6.80375E-07
704.04024	6.84581E-07
704.21305	6.91256E-07
704.38587	7.00527E-07
704.55868	7.12560E-07
704.73149	7.27576E-07
704.90431	7.45851E-07
705.07712	7.67726E-07
705.24993	7.93625E-07
705.42274	8.24058E-07
705.59556	8.59641E-07
705.76837	9.01115E-07
705.94118	9.49349E-07
706.11400	1.00535E-06
706.28681	1.07022E-06
706.45962	1.14510E-06
706.63244	1.23096E-06
706.80525	1.32817E-06
706.97806	1.43579E-06
707.15087	1.55037E-06
707.32369	1.66431E-06
707.49650	1.76474E-06
707.66931	1.83473E-06