Wavenumber	NESR 15.67 cm-1
566.48157	5.03751E-08
566.61987	4.98442E-08
566.75818	4.90197E-08
566.89648	4.79721E-08
567.03479	4.67747E-08
567.17310	4.54930E-08
567.31140	4.41780E-08
567.44965	4.28663E-08
567.58795	4.15818E-08
567.72626	4.03387E-08
567.86456	3.91441E-08
568.00287	3.80010E-08
568.14117	3.69095E-08
568.27948	3.58682E-08
568.41779	3.48745E-08
568.55609	3.39260E-08
568.69440	3.30199E-08
568.83270	3.21533E-08
568.97101	3.13238E-08
569.10931	3.05289E-08
569.24762	2.97664E-08
569.38586	2.90344E-08
569.52417	2.83307E-08
569.66248	2.76540E-08
569.80078	2.70025E-08
569.93909	2.63748E-08
570.07739	2.57697E-08
570.21570	2.51858E-08
570.35400	2.46220E-08
570.49231	2.40774E-08
570.63062	2.35509E-08
570.76892	2.30417E-08
570.90723	2.25490E-08
571.04553	2.20719E-08
571.18378	2.16098E-08
571.32208	2.11620E-08
571.46039	2.07279E-08
571.59869	2.03069E-08
571.73700	1.98985E-08
571.87531	1.95021E-08
572.01361	1.91173E-08
572.15192	1.87437E-08
572.29022	1.83807E-08
572.42853	1.80281E-08
572.56683	1.76854E-08
572.70514	1.73523E-08
572.84345	1.70284E-08
572.98175	1.67134E-08
573.12000	1.64071E-08
573.25830	1.61090E-08
573.39661	1.58191E-08
573.53491	1.55369E-08
573.67322	1.52622E-08
573.81152	1.49949E-08
573.94983	1.47346E-08
574.08814	1.44812E-08
574.22644	1.42344E-08
574.36475	1.39941E-08
574.50305	1.37600E-08
574.64136	1.35319E-08
574.77966	1.33097E-08
574.91797	1.30933E-08
575.05621	1.28823E-08
575.19452	1.26767E-08
575.33283	1.24764E-08
575.47113	1.22811E-08
575.60944	1.20907E-08
575.74774	1.19050E-08
575.88605	1.17240E-08
576.02435	1.15475E-08
576.16266	1.13754E-08
576.30096	1.12075E-08
576.43927	1.10438E-08
576.57758	1.08840E-08
576.71588	1.07281E-08
576.85413	1.05760E-08
576.99243	1.04276E-08
577.13074	1.02828E-08
577.26904	1.01414E-08
577.40735	1.00034E-08
577.54565	9.86867E-09
577.68396	9.73711E-09
577.82227	9.60863E-09
577.96057	9.48316E-09
578.09888	9.36060E-09
578.23718	9.24086E-09
578.37549	9.12388E-09
578.51379	9.00958E-09
578.65210	8.89786E-09
578.79034	8.78867E-09
578.92865	8.68192E-09
579.06696	8.57755E-09
579.20526	8.47550E-09
579.34357	8.37568E-09
579.48187	8.27805E-09
579.62018	8.18253E-09
579.75848	8.08909E-09
579.89679	7.99764E-09
580.03510	7.90813E-09
580.17340	7.82051E-09
580.31171	7.73473E-09
580.45001	7.65072E-09
580.58826	7.56846E-09
580.72656	7.48789E-09
580.86487	7.40892E-09
581.00317	7.33156E-09
581.14148	7.25574E-09
581.27979	7.18142E-09
581.41809	7.10858E-09
581.55640	7.03716E-09
581.69470	6.96710E-09
581.83301	6.89839E-09
581.97131	6.83099E-09
582.10962	6.76486E-09
582.24793	6.69993E-09
582.38623	6.63623E-09
582.52448	6.57368E-09
582.66278	6.51226E-09
582.80109	6.45193E-09
582.93939	6.39270E-09
583.07770	6.33451E-09
583.21600	6.27732E-09
583.35431	6.22112E-09
583.49262	6.16590E-09
583.63092	6.11160E-09
583.76923	6.05822E-09
583.90753	6.00573E-09
584.04584	5.95412E-09
584.18414	5.90333E-09
584.32239	5.85339E-09
584.46069	5.80423E-09
584.59900	5.75586E-09
584.73731	5.70826E-09
584.87561	5.66140E-09
585.01392	5.61527E-09
585.15222	5.56986E-09
585.29053	5.52513E-09
585.42883	5.48110E-09
585.56714	5.43771E-09
585.70544	5.39497E-09
585.84375	5.35286E-09
585.98206	5.31136E-09
586.12036	5.27049E-09
586.25861	5.23019E-09
586.39691	5.19048E-09
586.53522	5.15132E-09
586.67352	5.11272E-09
586.81183	5.07467E-09
586.95013	5.03714E-09
587.08844	5.00013E-09
587.22675	4.96364E-09
587.36505	4.92765E-09
587.50336	4.89215E-09
587.64166	4.85713E-09
587.77997	4.82258E-09
587.91827	4.78849E-09
588.05652	4.75486E-09
588.19482	4.72168E-09
588.33313	4.68893E-09
588.47144	4.65662E-09
588.60974	4.62472E-09
588.74805	4.59325E-09
588.88635	4.56218E-09
589.02466	4.53152E-09
589.16296	4.50124E-09
589.30127	4.47137E-09
589.43958	4.44187E-09
589.57788	4.41276E-09
589.71619	4.38401E-09
589.85449	4.35563E-09
589.99274	4.32762E-09
590.13104	4.29995E-09
590.26935	4.27264E-09
590.40765	4.24568E-09
590.54596	4.21906E-09
590.68427	4.19277E-09
590.82257	4.16680E-09
590.96088	4.14116E-09
591.09918	4.11584E-09
591.23749	4.09084E-09
591.37579	4.06616E-09
591.51410	4.04177E-09
591.65241	4.01769E-09
591.79071	3.99392E-09
591.92896	3.97044E-09
592.06726	3.94725E-09
592.20557	3.92435E-09
592.34387	3.90174E-09
592.48218	3.87940E-09
592.62048	3.85734E-09
592.75879	3.83555E-09
592.89710	3.81404E-09
593.03540	3.79279E-09
593.17371	3.77182E-09
593.31201	3.75110E-09
593.45032	3.73064E-09
593.58862	3.71044E-09
593.72687	3.69048E-09
593.86517	3.67077E-09
594.00348	3.65131E-09
594.14179	3.63208E-09
594.28009	3.61310E-09
594.41840	3.59435E-09
594.55670	3.57583E-09
594.69501	3.55755E-09
594.83331	3.53949E-09
594.97162	3.52166E-09
595.10992	3.50404E-09
595.24823	3.48665E-09
595.38654	3.46948E-09
595.52484	3.45253E-09
595.66309	3.43579E-09
595.80139	3.41926E-09
595.93970	3.40294E-09
596.07800	3.38682E-09
596.21631	3.37091E-09
596.35461	3.35520E-09
596.49292	3.33969E-09
596.63123	3.32438E-09
596.76953	3.30926E-09
596.90784	3.29434E-09
597.04614	3.27961E-09
597.18445	3.26507E-09
597.32275	3.25073E-09
597.46100	3.23656E-09
597.59930	3.22258E-09
597.73761	3.20879E-09
597.87592	3.19518E-09
598.01422	3.18175E-09
598.15253	3.16850E-09
598.29083	3.15542E-09
598.42914	3.14252E-09
598.56744	3.12980E-09
598.70575	3.11724E-09
598.84406	3.10486E-09
598.98236	3.09265E-09
599.12067	3.08061E-09
599.25897	3.06873E-09
599.39722	3.05702E-09
599.53552	3.04547E-09
599.67383	3.03409E-09
599.81213	3.02288E-09
599.95044	3.01182E-09
600.08875	3.00092E-09
600.22705	2.99018E-09
600.36536	2.97959E-09
600.50366	2.96917E-09
600.64197	2.95889E-09
600.78027	2.94878E-09
600.91858	2.93881E-09
601.05689	2.92900E-09
601.19513	2.91934E-09
601.33344	2.90983E-09
601.47174	2.90047E-09
601.61005	2.89125E-09
601.74835	2.88219E-09
601.88666	2.87327E-09
602.02496	2.86449E-09
602.16327	2.85586E-09
602.30158	2.84738E-09
602.43988	2.83903E-09
602.57819	2.83083E-09
602.71649	2.82277E-09
602.85480	2.81484E-09
602.99310	2.80705E-09
603.13135	2.79940E-09
603.26965	2.79189E-09
603.40796	2.78451E-09
603.54627	2.77726E-09
603.68457	2.77015E-09
603.82288	2.76317E-09
603.96118	2.75632E-09
604.09949	2.74960E-09
604.23779	2.74300E-09
604.37610	2.73654E-09
604.51440	2.73019E-09
604.65271	2.72398E-09
604.79102	2.71788E-09
604.92932	2.71191E-09
605.06757	2.70606E-09
605.20587	2.70033E-09
605.34418	2.69471E-09
605.48248	2.68922E-09
605.62079	2.68384E-09
605.75909	2.67858E-09
605.89740	2.67342E-09
606.03571	2.66838E-09
606.17401	2.66345E-09
606.31232	2.65862E-09
606.45062	2.65390E-09
606.58893	2.64928E-09
606.72723	2.64477E-09
606.86548	2.64036E-09
607.00378	2.63605E-09
607.14209	2.63184E-09
607.28040	2.62773E-09
607.41870	2.62371E-09
607.55701	2.61979E-09
607.69531	2.61596E-09
607.83362	2.61221E-09
607.97192	2.60856E-09
608.11023	2.60499E-09
608.24854	2.60151E-09
608.38684	2.59812E-09
608.52515	2.59480E-09
608.66345	2.59156E-09
608.80170	2.58841E-09
608.94000	2.58533E-09
609.07831	2.58232E-09
609.21661	2.57939E-09
609.35492	2.57652E-09
609.49323	2.57373E-09
609.63153	2.57101E-09
609.76984	2.56835E-09
609.90814	2.56576E-09
610.04645	2.56322E-09
610.18475	2.56075E-09
610.32306	2.55834E-09
610.46137	2.55599E-09
610.59961	2.55369E-09
610.73792	2.55145E-09
610.87622	2.54926E-09
611.01453	2.54712E-09
611.15283	2.54503E-09
611.29114	2.54299E-09
611.42944	2.54100E-09
611.56775	2.53905E-09
611.70606	2.53714E-09
611.84436	2.53528E-09
611.98267	2.53346E-09
612.12097	2.53168E-09
612.25928	2.52994E-09
612.39758	2.52824E-09
612.53583	2.52657E-09
612.67413	2.52494E-09
612.81244	2.52334E-09
612.95075	2.52178E-09
613.08905	2.52025E-09
613.22736	2.51875E-09
613.36566	2.51728E-09
613.50397	2.51584E-09
613.64227	2.51444E-09
613.78058	2.51306E-09
613.91888	2.51171E-09
614.05719	2.51038E-09
614.19550	2.50908E-09
614.33374	2.50781E-09
614.47205	2.50657E-09
614.61035	2.50535E-09
614.74866	2.50416E-09
614.88696	2.50299E-09
615.02527	2.50185E-09
615.16357	2.50073E-09
615.30188	2.49964E-09
615.44019	2.49857E-09
615.57849	2.49753E-09
615.71680	2.49651E-09
615.85510	2.49551E-09
615.99341	2.49455E-09
616.13171	2.49361E-09
616.26996	2.49269E-09
616.40826	2.49180E-09
616.54657	2.49093E-09
616.68488	2.49010E-09
616.82318	2.48929E-09
616.96149	2.48851E-09
617.09979	2.48776E-09
617.23810	2.48703E-09
617.37640	2.48634E-09
617.51471	2.48568E-09
617.65302	2.48504E-09
617.79132	2.48444E-09
617.92963	2.48387E-09
618.06787	2.48333E-09
618.20618	2.48282E-09
618.34448	2.48235E-09
618.48279	2.48192E-09
618.62109	2.48152E-09
618.75940	2.48115E-09
618.89771	2.48082E-09
619.03601	2.48053E-09
619.17432	2.48028E-09
619.31262	2.48006E-09
619.45093	2.47988E-09
619.58923	2.47974E-09
619.72754	2.47964E-09
619.86585	2.47958E-09
620.00409	2.47955E-09
620.14240	2.47957E-09
620.28070	2.47963E-09
620.41901	2.47974E-09
620.55731	2.47988E-09
620.69562	2.48006E-09
620.83392	2.48029E-09
620.97223	2.48056E-09
621.11054	2.48088E-09
621.24884	2.48123E-09
621.38715	2.48163E-09
621.52545	2.48208E-09
621.66376	2.48256E-09
621.80206	2.48309E-09
621.94031	2.48367E-09
622.07861	2.48428E-09
622.21692	2.48494E-09
622.35523	2.48564E-09
622.49353	2.48639E-09
622.63184	2.48717E-09
622.77014	2.48800E-09
622.90845	2.48887E-09
623.04675	2.48978E-09
623.18506	2.49072E-09
623.32336	2.49171E-09
623.46167	2.49274E-09
623.59998	2.49380E-09
623.73822	2.49490E-09
623.87653	2.49604E-09
624.01483	2.49721E-09
624.15314	2.49842E-09
624.29144	2.49966E-09
624.42975	2.50093E-09
624.56805	2.50224E-09
624.70636	2.50357E-09
624.84467	2.50493E-09
624.98297	2.50632E-09
625.12128	2.50774E-09
625.25958	2.50919E-09
625.39789	2.51065E-09
625.53619	2.51214E-09
625.67444	2.51365E-09
625.81274	2.51518E-09
625.95105	2.51673E-09
626.08936	2.51830E-09
626.22766	2.51988E-09
626.36597	2.52147E-09
626.50427	2.52307E-09
626.64258	2.52469E-09
626.78088	2.52631E-09
626.91919	2.52793E-09
627.05750	2.52957E-09
627.19580	2.53121E-09
627.33411	2.53285E-09
627.47235	2.53449E-09
627.61066	2.53613E-09
627.74896	2.53777E-09
627.88727	2.53941E-09
628.02557	2.54104E-09
628.16388	2.54266E-09
628.30219	2.54428E-09
628.44049	2.54588E-09
628.57880	2.54748E-09
628.71710	2.54906E-09
628.85541	2.55063E-09
628.99371	2.55218E-09
629.13202	2.55372E-09
629.27033	2.55523E-09
629.40857	2.55674E-09
629.54688	2.55822E-09
629.68518	2.55968E-09
629.82349	2.56111E-09
629.96179	2.56253E-09
630.10010	2.56392E-09
630.23840	2.56528E-09
630.37671	2.56662E-09
630.51502	2.56793E-09
630.65332	2.56922E-09
630.79163	2.57048E-09
630.92993	2.57171E-09
631.06824	2.57291E-09
631.20648	2.57408E-09
631.34479	2.57523E-09
631.48309	2.57635E-09
631.62140	2.57744E-09
631.75971	2.57850E-09
631.89801	2.57953E-09
632.03632	2.58053E-09
632.17462	2.58150E-09
632.31293	2.58245E-09
632.45123	2.58337E-09
632.58954	2.58426E-09
632.72784	2.58513E-09
632.86615	2.58596E-09
633.00446	2.58678E-09
633.14270	2.58757E-09
633.28101	2.58833E-09
633.41931	2.58907E-09
633.55762	2.58979E-09
633.69592	2.59048E-09
633.83423	2.59116E-09
633.97253	2.59182E-09
634.11084	2.59245E-09
634.24915	2.59307E-09
634.38745	2.59367E-09
634.52576	2.59426E-09
634.66406	2.59483E-09
634.80237	2.59539E-09
634.94067	2.59593E-09
635.07892	2.59647E-09
635.21722	2.59700E-09
635.35553	2.59752E-09
635.49384	2.59803E-09
635.63214	2.59854E-09
635.77045	2.59904E-09
635.90875	2.59954E-09
636.04706	2.60003E-09
636.18536	2.60053E-09
636.32367	2.60103E-09
636.46198	2.60152E-09
636.60028	2.60203E-09
636.73859	2.60253E-09
636.87683	2.60304E-09
637.01514	2.60356E-09
637.15344	2.60408E-09
637.29175	2.60461E-09
637.43005	2.60515E-09
637.56836	2.60571E-09
637.70667	2.60627E-09
637.84497	2.60684E-09
637.98328	2.60743E-09
638.12158	2.60803E-09
638.25989	2.60865E-09
638.39819	2.60928E-09
638.53650	2.60993E-09
638.67481	2.61060E-09
638.81305	2.61129E-09
638.95136	2.61199E-09
639.08966	2.61271E-09
639.22797	2.61345E-09
639.36627	2.61421E-09
639.50458	2.61499E-09
639.64288	2.61579E-09
639.78119	2.61661E-09
639.91950	2.61745E-09
640.05780	2.61830E-09
640.19611	2.61918E-09
640.33441	2.62008E-09
640.47272	2.62100E-09
640.61096	2.62193E-09
640.74927	2.62289E-09
640.88757	2.62386E-09
641.02588	2.62486E-09
641.16419	2.62587E-09
641.30249	2.62691E-09
641.44080	2.62796E-09
641.57910	2.62902E-09
641.71741	2.63011E-09
641.85571	2.63121E-09
641.99402	2.63232E-09
642.13232	2.63345E-09
642.27063	2.63459E-09
642.40894	2.63574E-09
642.54718	2.63691E-09
642.68549	2.63809E-09
642.82379	2.63928E-09
642.96210	2.64047E-09
643.10040	2.64168E-09
643.23871	2.64289E-09
643.37701	2.64411E-09
643.51532	2.64533E-09
643.65363	2.64656E-09
643.79193	2.64779E-09
643.93024	2.64903E-09
644.06854	2.65026E-09
644.20685	2.65150E-09
644.34509	2.65273E-09
644.48340	2.65396E-09
644.62170	2.65520E-09
644.76001	2.65643E-09
644.89832	2.65765E-09
645.03662	2.65887E-09
645.17493	2.66008E-09
645.31323	2.66128E-09
645.45154	2.66248E-09
645.58984	2.66366E-09
645.72815	2.66484E-09
645.86646	2.66600E-09
646.00476	2.66715E-09
646.14307	2.66829E-09
646.28131	2.66941E-09
646.41962	2.67052E-09
646.55792	2.67162E-09
646.69623	2.67270E-09
646.83453	2.67376E-09
646.97284	2.67481E-09
647.11115	2.67584E-09
647.24945	2.67685E-09
647.38776	2.67784E-09
647.52606	2.67881E-09
647.66437	2.67976E-09
647.80267	2.68069E-09
647.94098	2.68161E-09
648.07922	2.68250E-09
648.21753	2.68337E-09
648.35584	2.68422E-09
648.49414	2.68505E-09
648.63245	2.68586E-09
648.77075	2.68665E-09
648.90906	2.68741E-09
649.04736	2.68816E-09
649.18567	2.68888E-09
649.32398	2.68958E-09
649.46228	2.69026E-09
649.60059	2.69091E-09
649.73889	2.69155E-09
649.87720	2.69217E-09
650.01544	2.69276E-09
650.15375	2.69334E-09
650.29205	2.69390E-09
650.43036	2.69443E-09
650.56867	2.69495E-09
650.70697	2.69545E-09
650.84528	2.69593E-09
650.98358	2.69639E-09
651.12189	2.69683E-09
651.26019	2.69726E-09
651.39850	2.69766E-09
651.53680	2.69805E-09
651.67511	2.69843E-09
651.81342	2.69878E-09
651.95166	2.69912E-09
652.08997	2.69945E-09
652.22827	2.69976E-09
652.36658	2.70005E-09
652.50488	2.70034E-09
652.64319	2.70060E-09
652.78149	2.70086E-09
652.91980	2.70109E-09
653.05811	2.70132E-09
653.19641	2.70153E-09
653.33472	2.70173E-09
653.47302	2.70192E-09
653.61133	2.70209E-09
653.74957	2.70226E-09
653.88788	2.70241E-09
654.02618	2.70254E-09
654.16449	2.70267E-09
654.30280	2.70279E-09
654.44110	2.70289E-09
654.57941	2.70298E-09
654.71771	2.70306E-09
654.85602	2.70313E-09
654.99432	2.70318E-09
655.13263	2.70322E-09
655.27094	2.70325E-09
655.40924	2.70327E-09
655.54755	2.70327E-09
655.68579	2.70327E-09
655.82410	2.70325E-09
655.96240	2.70322E-09
656.10071	2.70317E-09
656.23901	2.70311E-09
656.37732	2.70304E-09
656.51563	2.70295E-09
656.65393	2.70285E-09
656.79224	2.70273E-09
656.93054	2.70259E-09
657.06885	2.70245E-09
657.20715	2.70228E-09
657.34546	2.70210E-09
657.48370	2.70190E-09
657.62201	2.70168E-09
657.76032	2.70144E-09
657.89862	2.70119E-09
658.03693	2.70092E-09
658.17523	2.70062E-09
658.31354	2.70031E-09
658.45184	2.69997E-09
658.59015	2.69962E-09
658.72846	2.69924E-09
658.86676	2.69884E-09
659.00507	2.69842E-09
659.14337	2.69797E-09
659.28168	2.69750E-09
659.41992	2.69701E-09
659.55823	2.69650E-09
659.69653	2.69596E-09
659.83484	2.69540E-09
659.97315	2.69481E-09
660.11145	2.69419E-09
660.24976	2.69356E-09
660.38806	2.69289E-09
660.52637	2.69220E-09
660.66467	2.69148E-09
660.80298	2.69074E-09
660.94128	2.68997E-09
661.07959	2.68918E-09
661.21783	2.68836E-09
661.35614	2.68751E-09
661.49445	2.68664E-09
661.63275	2.68574E-09
661.77106	2.68482E-09
661.90936	2.68387E-09
662.04767	2.68289E-09
662.18597	2.68189E-09
662.32428	2.68087E-09
662.46259	2.67983E-09
662.60089	2.67876E-09
662.73920	2.67767E-09
662.87750	2.67656E-09
663.01581	2.67542E-09
663.15405	2.67427E-09
663.29236	2.67309E-09
663.43066	2.67190E-09
663.56897	2.67068E-09
663.70728	2.66945E-09
663.84558	2.66820E-09
663.98389	2.66693E-09
664.12219	2.66565E-09
664.26050	2.66436E-09
664.39880	2.66304E-09
664.53711	2.66172E-09
664.67542	2.66039E-09
664.81372	2.65904E-09
664.95203	2.65768E-09
665.09027	2.65632E-09
665.22858	2.65495E-09
665.36688	2.65357E-09
665.50519	2.65218E-09
665.64349	2.65079E-09
665.78180	2.64940E-09
665.92011	2.64800E-09
666.05841	2.64660E-09
666.19672	2.64520E-09
666.33502	2.64380E-09
666.47333	2.64241E-09
666.61163	2.64101E-09
666.74994	2.63962E-09
666.88818	2.63823E-09
667.02649	2.63685E-09
667.16480	2.63547E-09
667.30310	2.63410E-09
667.44141	2.63274E-09
667.57971	2.63139E-09
667.71802	2.63004E-09
667.85632	2.62871E-09
667.99463	2.62739E-09
668.13294	2.62608E-09
668.27124	2.62479E-09
668.40955	2.62350E-09
668.54785	2.62224E-09
668.68616	2.62098E-09
668.82440	2.61975E-09
668.96271	2.61853E-09
669.10101	2.61732E-09
669.23932	2.61613E-09
669.37763	2.61496E-09
669.51593	2.61380E-09
669.65424	2.61266E-09
669.79254	2.61154E-09
669.93085	2.61044E-09
670.06915	2.60935E-09
670.20746	2.60829E-09
670.34576	2.60724E-09
670.48407	2.60621E-09
670.62231	2.60520E-09
670.76062	2.60420E-09
670.89893	2.60323E-09
671.03723	2.60227E-09
671.17554	2.60132E-09
671.31384	2.60040E-09
671.45215	2.59949E-09
671.59045	2.59860E-09
671.72876	2.59772E-09
671.86707	2.59685E-09
672.00537	2.59601E-09
672.14368	2.59517E-09
672.28198	2.59435E-09
672.42029	2.59354E-09
672.55853	2.59274E-09
672.69684	2.59196E-09
672.83514	2.59118E-09
672.97345	2.59042E-09
673.11176	2.58966E-09
673.25006	2.58892E-09
673.38837	2.58817E-09
673.52667	2.58744E-09
673.66498	2.58672E-09
673.80328	2.58599E-09
673.94159	2.58527E-09
674.07990	2.58456E-09
674.21820	2.58385E-09
674.35645	2.58314E-09
674.49475	2.58243E-09
674.63306	2.58172E-09
674.77136	2.58101E-09
674.90967	2.58029E-09
675.04797	2.57958E-09
675.18628	2.57886E-09
675.32459	2.57813E-09
675.46289	2.57740E-09
675.60120	2.57667E-09
675.73950	2.57592E-09
675.87781	2.57517E-09
676.01611	2.57441E-09
676.15442	2.57364E-09
676.29266	2.57285E-09
676.43097	2.57206E-09
676.56928	2.57126E-09
676.70758	2.57044E-09
676.84589	2.56961E-09
676.98419	2.56877E-09
677.12250	2.56791E-09
677.26080	2.56704E-09
677.39911	2.56616E-09
677.53742	2.56526E-09
677.67572	2.56434E-09
677.81403	2.56341E-09
677.95233	2.56247E-09
678.09058	2.56150E-09
678.22888	2.56052E-09
678.36719	2.55952E-09
678.50549	2.55851E-09
678.64380	2.55748E-09
678.78210	2.55643E-09
678.92041	2.55537E-09
679.05872	2.55429E-09
679.19702	2.55319E-09
679.33533	2.55208E-09
679.47363	2.55096E-09
679.61194	2.54981E-09
679.75024	2.54865E-09
679.88855	2.54748E-09
680.02679	2.54629E-09
680.16510	2.54509E-09
680.30341	2.54387E-09
680.44171	2.54264E-09
680.58002	2.54140E-09
680.71832	2.54015E-09
680.85663	2.53888E-09
680.99493	2.53761E-09
681.13324	2.53632E-09
681.27155	2.53502E-09
681.40985	2.53372E-09
681.54816	2.53241E-09
681.68646	2.53109E-09
681.82477	2.52976E-09
681.96301	2.52842E-09
682.10132	2.52709E-09
682.23962	2.52574E-09
682.37793	2.52440E-09
682.51624	2.52305E-09
682.65454	2.52169E-09
682.79285	2.52034E-09
682.93115	2.51899E-09
683.06946	2.51763E-09
683.20776	2.51628E-09
683.34607	2.51493E-09
683.48438	2.51359E-09
683.62268	2.51225E-09
683.76093	2.51091E-09
683.89923	2.50957E-09
684.03754	2.50824E-09
684.17584	2.50692E-09
684.31415	2.50560E-09
684.45245	2.50429E-09
684.59076	2.50299E-09
684.72907	2.50169E-09
684.86737	2.50041E-09
685.00568	2.49913E-09
685.14398	2.49787E-09
685.28229	2.49661E-09
685.42059	2.49537E-09
685.55890	2.49414E-09
685.69714	2.49292E-09
685.83545	2.49171E-09
685.97376	2.49052E-09
686.11206	2.48934E-09
686.25037	2.48817E-09
686.38867	2.48702E-09
686.52698	2.48588E-09
686.66528	2.48475E-09
686.80359	2.48364E-09
686.94190	2.48254E-09
687.08020	2.48146E-09
687.21851	2.48039E-09
687.35681	2.47934E-09
687.49506	2.47830E-09
687.63336	2.47728E-09
687.77167	2.47627E-09
687.90997	2.47528E-09
688.04828	2.47429E-09
688.18658	2.47333E-09
688.32489	2.47238E-09
688.46320	2.47144E-09
688.60150	2.47051E-09
688.73981	2.46960E-09
688.87811	2.46870E-09
689.01642	2.46782E-09
689.15472	2.46695E-09
689.29303	2.46609E-09
689.43127	2.46524E-09
689.56958	2.46441E-09
689.70789	2.46358E-09
689.84619	2.46277E-09
689.98450	2.46197E-09
690.12280	2.46118E-09
690.26111	2.46040E-09
690.39941	2.45962E-09
690.53772	2.45886E-09
690.67603	2.45811E-09
690.81433	2.45737E-09
690.95264	2.45663E-09
691.09094	2.45591E-09
691.22919	2.45519E-09
691.36749	2.45447E-09
691.50580	2.45377E-09
691.64410	2.45307E-09
691.78241	2.45238E-09
691.92072	2.45170E-09
692.05902	2.45102E-09
692.19733	2.45035E-09
692.33563	2.44968E-09
692.47394	2.44902E-09
692.61224	2.44836E-09
692.75055	2.44771E-09
692.88886	2.44706E-09
693.02716	2.44642E-09
693.16541	2.44578E-09
693.30371	2.44515E-09
693.44202	2.44452E-09
693.58032	2.44390E-09
693.71863	2.44328E-09
693.85693	2.44266E-09
693.99524	2.44205E-09
694.13355	2.44145E-09
694.27185	2.44084E-09
694.41016	2.44024E-09
694.54846	2.43965E-09
694.68677	2.43906E-09
694.82507	2.43848E-09
694.96338	2.43790E-09
695.10162	2.43733E-09
695.23993	2.43676E-09
695.37824	2.43619E-09
695.51654	2.43564E-09
695.65485	2.43509E-09
695.79315	2.43454E-09
695.93146	2.43400E-09
696.06976	2.43347E-09
696.20807	2.43295E-09
696.34638	2.43243E-09
696.48468	2.43193E-09
696.62299	2.43143E-09
696.76129	2.43094E-09
696.89954	2.43045E-09
697.03784	2.42998E-09
697.17615	2.42952E-09
697.31445	2.42907E-09
697.45276	2.42862E-09
697.59106	2.42819E-09
697.72937	2.42778E-09
697.86768	2.42737E-09
698.00598	2.42698E-09
698.14429	2.42660E-09
698.28259	2.42623E-09
698.42090	2.42588E-09
698.55920	2.42554E-09
698.69751	2.42522E-09
698.83575	2.42491E-09
698.97406	2.42462E-09
699.11237	2.42435E-09
699.25067	2.42408E-09
699.38898	2.42384E-09
699.52728	2.42361E-09
699.66559	2.42340E-09
699.80389	2.42321E-09
699.94220	2.42304E-09
700.08051	2.42288E-09
700.21881	2.42275E-09
700.35712	2.42263E-09
700.49542	2.42253E-09
700.63367	2.42245E-09
700.77197	2.42239E-09
700.91028	2.42235E-09
701.04858	2.42233E-09
701.18689	2.42233E-09
701.32520	2.42234E-09
701.46350	2.42238E-09
701.60181	2.42244E-09
701.74011	2.42252E-09
701.87842	2.42262E-09
702.01672	2.42273E-09
702.15503	2.42287E-09
702.29334	2.42303E-09
702.43164	2.42321E-09
702.56989	2.42340E-09
702.70819	2.42362E-09
702.84650	2.42386E-09
702.98480	2.42411E-09
703.12311	2.42439E-09
703.26141	2.42468E-09
703.39972	2.42499E-09
703.53803	2.42533E-09
703.67633	2.42567E-09
703.81464	2.42604E-09
703.95294	2.42643E-09
704.09125	2.42684E-09
704.22955	2.42726E-09
704.36780	2.42770E-09
704.50610	2.42815E-09
704.64441	2.42863E-09
704.78272	2.42912E-09
704.92102	2.42962E-09
705.05933	2.43014E-09
705.19763	2.43068E-09
705.33594	2.43123E-09
705.47424	2.43179E-09
705.61255	2.43237E-09
705.75085	2.43296E-09
705.88916	2.43357E-09
706.02747	2.43419E-09
706.16577	2.43482E-09
706.30402	2.43546E-09
706.44232	2.43612E-09
706.58063	2.43678E-09
706.71893	2.43746E-09
706.85724	2.43815E-09
706.99554	2.43886E-09
707.13385	2.43957E-09
707.27216	2.44029E-09
707.41046	2.44103E-09
707.54877	2.44177E-09
707.68707	2.44252E-09
707.82538	2.44328E-09
707.96368	2.44406E-09
708.10193	2.44483E-09
708.24023	2.44562E-09
708.37854	2.44642E-09
708.51685	2.44723E-09
708.65515	2.44804E-09
708.79346	2.44887E-09
708.93176	2.44970E-09
709.07007	2.45054E-09
709.20837	2.45139E-09
709.34668	2.45225E-09
709.48499	2.45311E-09
709.62329	2.45399E-09
709.76160	2.45488E-09
709.89990	2.45577E-09
710.03815	2.45667E-09
710.17645	2.45759E-09
710.31476	2.45851E-09
710.45306	2.45944E-09
710.59137	2.46038E-09
710.72968	2.46133E-09
710.86798	2.46229E-09
711.00629	2.46326E-09
711.14459	2.46425E-09
711.28290	2.46524E-09
711.42120	2.46625E-09
711.55951	2.46726E-09
711.69782	2.46829E-09
711.83612	2.46933E-09
711.97437	2.47039E-09
712.11267	2.47145E-09
712.25098	2.47253E-09
712.38928	2.47363E-09
712.52759	2.47474E-09
712.66589	2.47586E-09
712.80420	2.47699E-09
712.94251	2.47815E-09
713.08081	2.47931E-09
713.21912	2.48050E-09
713.35742	2.48170E-09
713.49573	2.48291E-09
713.63403	2.48414E-09
713.77228	2.48539E-09
713.91058	2.48666E-09
714.04889	2.48794E-09
714.18720	2.48924E-09
714.32550	2.49056E-09
714.46381	2.49190E-09
714.60211	2.49326E-09
714.74042	2.49463E-09
714.87872	2.49603E-09
715.01703	2.49744E-09
715.15533	2.49888E-09
715.29364	2.50033E-09
715.43195	2.50181E-09
715.57025	2.50330E-09
715.70850	2.50481E-09
715.84680	2.50634E-09
715.98511	2.50790E-09
716.12341	2.50947E-09
716.26172	2.51106E-09
716.40002	2.51267E-09
716.53833	2.51430E-09
716.67664	2.51595E-09
716.81494	2.51762E-09
716.95325	2.51931E-09
717.09155	2.52101E-09
717.22986	2.52274E-09
717.36816	2.52448E-09
717.50641	2.52625E-09
717.64471	2.52803E-09
717.78302	2.52982E-09
717.92133	2.53164E-09
718.05963	2.53347E-09
718.19794	2.53532E-09
718.33624	2.53719E-09
718.47455	2.53907E-09
718.61285	2.54096E-09
718.75116	2.54287E-09
718.88947	2.54480E-09
719.02777	2.54673E-09
719.16608	2.54868E-09
719.30438	2.55065E-09
719.44263	2.55262E-09
719.58093	2.55461E-09
719.71924	2.55660E-09
719.85754	2.55861E-09
719.99585	2.56063E-09
720.13416	2.56265E-09
720.27246	2.56468E-09
720.41077	2.56672E-09
720.54907	2.56877E-09
720.68738	2.57082E-09
720.82568	2.57288E-09
720.96399	2.57494E-09
721.10230	2.57700E-09
721.24054	2.57907E-09
721.37885	2.58115E-09
721.51715	2.58322E-09
721.65546	2.58530E-09
721.79376	2.58737E-09
721.93207	2.58945E-09
722.07037	2.59153E-09
722.20868	2.59361E-09
722.34699	2.59568E-09
722.48529	2.59776E-09
722.62360	2.59983E-09
722.76190	2.60190E-09
722.90021	2.60397E-09
723.03851	2.60603E-09
723.17676	2.60809E-09
723.31506	2.61014E-09
723.45337	2.61219E-09
723.59168	2.61423E-09
723.72998	2.61627E-09
723.86829	2.61830E-09
724.00659	2.62033E-09
724.14490	2.62235E-09
724.28320	2.62436E-09
724.42151	2.62637E-09
724.55981	2.62837E-09
724.69812	2.63036E-09
724.83643	2.63235E-09
724.97473	2.63433E-09
725.11298	2.63630E-09
725.25128	2.63826E-09
725.38959	2.64022E-09
725.52789	2.64217E-09
725.66620	2.64412E-09
725.80450	2.64605E-09
725.94281	2.64798E-09
726.08112	2.64991E-09
726.21942	2.65183E-09
726.35773	2.65374E-09
726.49603	2.65565E-09
726.63434	2.65755E-09
726.77264	2.65944E-09
726.91089	2.66134E-09
727.04919	2.66322E-09
727.18750	2.66511E-09
727.32581	2.66699E-09
727.46411	2.66887E-09
727.60242	2.67074E-09
727.74072	2.67261E-09
727.87903	2.67449E-09
728.01733	2.67636E-09
728.15564	2.67823E-09
728.29395	2.68010E-09
728.43225	2.68197E-09
728.57056	2.68384E-09
728.70886	2.68571E-09
728.84711	2.68758E-09
728.98541	2.68946E-09
729.12372	2.69134E-09
729.26202	2.69322E-09
729.40033	2.69510E-09
729.53864	2.69699E-09
729.67694	2.69889E-09
729.81525	2.70079E-09
729.95355	2.70270E-09
730.09186	2.70461E-09
730.23016	2.70653E-09
730.36847	2.70845E-09
730.50678	2.71039E-09
730.64502	2.71233E-09
730.78333	2.71428E-09
730.92163	2.71623E-09
731.05994	2.71820E-09
731.19824	2.72017E-09
731.33655	2.72216E-09
731.47485	2.72415E-09
731.61316	2.72615E-09
731.75147	2.72817E-09
731.88977	2.73019E-09
732.02808	2.73222E-09
732.16638	2.73426E-09
732.30469	2.73631E-09
732.44299	2.73837E-09
732.58124	2.74045E-09
732.71954	2.74253E-09
732.85785	2.74462E-09
732.99616	2.74672E-09
733.13446	2.74883E-09
733.27277	2.75095E-09
733.41107	2.75308E-09
733.54938	2.75522E-09
733.68768	2.75737E-09
733.82599	2.75953E-09
733.96429	2.76169E-09
734.10260	2.76387E-09
734.24091	2.76606E-09
734.37915	2.76825E-09
734.51746	2.77045E-09
734.65576	2.77265E-09
734.79407	2.77487E-09
734.93237	2.77709E-09
735.07068	2.77931E-09
735.20898	2.78154E-09
735.34729	2.78378E-09
735.48560	2.78602E-09
735.62390	2.78827E-09
735.76221	2.79052E-09
735.90051	2.79277E-09
736.03882	2.79502E-09
736.17712	2.79728E-09
736.31537	2.79954E-09
736.45367	2.80180E-09
736.59198	2.80406E-09
736.73029	2.80633E-09
736.86859	2.80859E-09
737.00690	2.81085E-09
737.14520	2.81311E-09
737.28351	2.81538E-09
737.42181	2.81764E-09
737.56012	2.81989E-09
737.69843	2.82215E-09
737.83673	2.82440E-09
737.97504	2.82666E-09
738.11334	2.82890E-09
738.25159	2.83115E-09
738.38989	2.83339E-09
738.52820	2.83563E-09
738.66650	2.83787E-09
738.80481	2.84010E-09
738.94312	2.84232E-09
739.08142	2.84455E-09
739.21973	2.84677E-09
739.35803	2.84898E-09
739.49634	2.85119E-09
739.63464	2.85340E-09
739.77295	2.85560E-09
739.91126	2.85780E-09
740.04950	2.86000E-09
740.18781	2.86219E-09
740.32611	2.86438E-09
740.46442	2.86657E-09
740.60272	2.86875E-09
740.74103	2.87094E-09
740.87933	2.87312E-09
741.01764	2.87529E-09
741.15595	2.87747E-09
741.29425	2.87964E-09
741.43256	2.88182E-09
741.57086	2.88399E-09
741.70917	2.88617E-09
741.84747	2.88834E-09
741.98572	2.89052E-09
742.12402	2.89270E-09
742.26233	2.89488E-09
742.40064	2.89706E-09
742.53894	2.89925E-09
742.67725	2.90144E-09
742.81555	2.90363E-09
742.95386	2.90583E-09
743.09216	2.90803E-09
743.23047	2.91024E-09
743.36877	2.91246E-09
743.50708	2.91468E-09
743.64539	2.91691E-09
743.78363	2.91916E-09
743.92194	2.92140E-09
744.06024	2.92366E-09
744.19855	2.92593E-09
744.33685	2.92821E-09
744.47516	2.93050E-09
744.61346	2.93280E-09
744.75177	2.93511E-09
744.89008	2.93743E-09
745.02838	2.93976E-09
745.16669	2.94211E-09
745.30499	2.94446E-09
745.44330	2.94683E-09
745.58160	2.94922E-09
745.71985	2.95161E-09
745.85815	2.95402E-09
745.99646	2.95645E-09
746.13477	2.95889E-09
746.27307	2.96134E-09
746.41138	2.96380E-09
746.54968	2.96628E-09
746.68799	2.96876E-09
746.82629	2.97127E-09
746.96460	2.97378E-09
747.10291	2.97631E-09
747.24121	2.97885E-09
747.37952	2.98140E-09
747.51776	2.98396E-09
747.65607	2.98653E-09
747.79437	2.98911E-09
747.93268	2.99170E-09
748.07098	2.99430E-09
748.20929	2.99691E-09
748.34760	2.99952E-09
748.48590	3.00215E-09
748.62421	3.00477E-09
748.76251	3.00741E-09
748.90082	3.01004E-09
749.03912	3.01268E-09
749.17743	3.01532E-09
749.31574	3.01796E-09
749.45398	3.02061E-09
749.59229	3.02325E-09
749.73059	3.02589E-09
749.86890	3.02852E-09
750.00720	3.03115E-09
750.14551	3.03377E-09
750.28381	3.03638E-09
750.42212	3.03899E-09
750.56043	3.04158E-09
750.69873	3.04417E-09
750.83704	3.04674E-09
750.97534	3.04930E-09
751.11365	3.05184E-09
751.25189	3.05436E-09
751.39020	3.05687E-09
751.52850	3.05936E-09
751.66681	3.06182E-09
751.80512	3.06427E-09
751.94342	3.06669E-09
752.08173	3.06909E-09
752.22003	3.07146E-09
752.35834	3.07380E-09
752.49664	3.07612E-09
752.63495	3.07840E-09
752.77325	3.08066E-09
752.91156	3.08289E-09
753.04987	3.08508E-09
753.18811	3.08724E-09
753.32642	3.08936E-09
753.46472	3.09145E-09
753.60303	3.09350E-09
753.74133	3.09552E-09
753.87964	3.09750E-09
754.01794	3.09944E-09
754.15625	3.10134E-09
754.29456	3.10320E-09
754.43286	3.10503E-09
754.57117	3.10681E-09
754.70947	3.10855E-09
754.84778	3.11025E-09
754.98608	3.11191E-09
755.12433	3.11353E-09
755.26263	3.11511E-09
755.40094	3.11664E-09
755.53925	3.11814E-09
755.67755	3.11960E-09
755.81586	3.12101E-09
755.95416	3.12239E-09
756.09247	3.12372E-09
756.23077	3.12502E-09
756.36908	3.12627E-09
756.50739	3.12749E-09
756.64569	3.12868E-09
756.78400	3.12982E-09
756.92224	3.13093E-09
757.06055	3.13201E-09
757.19885	3.13305E-09
757.33716	3.13405E-09
757.47546	3.13503E-09
757.61377	3.13597E-09
757.75208	3.13689E-09
757.89038	3.13777E-09
758.02869	3.13863E-09
758.16699	3.13947E-09
758.30530	3.14027E-09
758.44360	3.14106E-09
758.58191	3.14182E-09
758.72022	3.14257E-09
758.85846	3.14329E-09
758.99677	3.14400E-09
759.13507	3.14469E-09
759.27338	3.14536E-09
759.41168	3.14602E-09
759.54999	3.14667E-09
759.68829	3.14731E-09
759.82660	3.14794E-09
759.96491	3.14856E-09
760.10321	3.14917E-09
760.24152	3.14978E-09
760.37982	3.15039E-09
760.51813	3.15099E-09
760.65637	3.15159E-09
760.79468	3.15220E-09
760.93298	3.15280E-09
761.07129	3.15341E-09
761.20960	3.15402E-09
761.34790	3.15464E-09
761.48621	3.15526E-09
761.62451	3.15589E-09
761.76282	3.15652E-09
761.90112	3.15716E-09
762.03943	3.15782E-09
762.17773	3.15848E-09
762.31604	3.15915E-09
762.45435	3.15984E-09
762.59259	3.16054E-09
762.73090	3.16125E-09
762.86920	3.16197E-09
763.00751	3.16271E-09
763.14581	3.16346E-09
763.28412	3.16422E-09
763.42242	3.16500E-09
763.56073	3.16579E-09
763.69904	3.16659E-09
763.83734	3.16741E-09
763.97565	3.16824E-09
764.11395	3.16909E-09
764.25226	3.16995E-09
764.39050	3.17082E-09
764.52881	3.17170E-09
764.66711	3.17260E-09
764.80542	3.17351E-09
764.94373	3.17443E-09
765.08203	3.17535E-09
765.22034	3.17629E-09
765.35864	3.17723E-09
765.49695	3.17818E-09
765.63525	3.17914E-09
765.77356	3.18011E-09
765.91187	3.18108E-09
766.05017	3.18205E-09
766.18848	3.18302E-09
766.32672	3.18400E-09
766.46503	3.18498E-09
766.60333	3.18595E-09
766.74164	3.18692E-09
766.87994	3.18789E-09
767.01825	3.18885E-09
767.15656	3.18981E-09
767.29486	3.19076E-09
767.43317	3.19170E-09
767.57147	3.19263E-09
767.70978	3.19354E-09
767.84808	3.19445E-09
767.98639	3.19534E-09
768.12470	3.19622E-09
768.26294	3.19708E-09
768.40125	3.19792E-09
768.53955	3.19874E-09
768.67786	3.19954E-09
768.81616	3.20032E-09
768.95447	3.20108E-09
769.09277	3.20181E-09
769.23108	3.20252E-09
769.36939	3.20320E-09
769.50769	3.20385E-09
769.64600	3.20448E-09
769.78430	3.20508E-09
769.92261	3.20565E-09
770.06085	3.20619E-09
770.19916	3.20669E-09
770.33746	3.20717E-09
770.47577	3.20761E-09
770.61408	3.20803E-09
770.75238	3.20840E-09
770.89069	3.20875E-09
771.02899	3.20906E-09
771.16730	3.20934E-09
771.30560	3.20959E-09
771.44391	3.20980E-09
771.58221	3.20998E-09
771.72052	3.21012E-09
771.85883	3.21023E-09
771.99707	3.21031E-09
772.13538	3.21035E-09
772.27368	3.21037E-09
772.41199	3.21035E-09
772.55029	3.21030E-09
772.68860	3.21022E-09
772.82690	3.21011E-09
772.96521	3.20997E-09
773.10352	3.20981E-09
773.24182	3.20962E-09
773.38013	3.20940E-09
773.51843	3.20916E-09
773.65674	3.20890E-09
773.79498	3.20861E-09
773.93329	3.20830E-09
774.07159	3.20797E-09
774.20990	3.20763E-09
774.34821	3.20726E-09
774.48651	3.20688E-09
774.62482	3.20649E-09
774.76312	3.20609E-09
774.90143	3.20568E-09
775.03973	3.20525E-09
775.17804	3.20482E-09
775.31635	3.20439E-09
775.45465	3.20395E-09
775.59296	3.20351E-09
775.73120	3.20307E-09
775.86951	3.20263E-09
776.00781	3.20220E-09
776.14612	3.20177E-09
776.28442	3.20135E-09
776.42273	3.20093E-09
776.56104	3.20053E-09
776.69934	3.20014E-09
776.83765	3.19976E-09
776.97595	3.19939E-09
777.11426	3.19905E-09
777.25256	3.19872E-09
777.39087	3.19841E-09
777.52911	3.19812E-09
777.66742	3.19785E-09
777.80573	3.19761E-09
777.94403	3.19740E-09
778.08234	3.19721E-09
778.22064	3.19704E-09
778.35895	3.19691E-09
778.49725	3.19681E-09
778.63556	3.19674E-09
778.77387	3.19671E-09
778.91217	3.19670E-09
779.05048	3.19673E-09
779.18878	3.19680E-09
779.32709	3.19691E-09
779.46533	3.19705E-09
779.60364	3.19723E-09
779.74194	3.19744E-09
779.88025	3.19770E-09
780.01856	3.19800E-09
780.15686	3.19833E-09
780.29517	3.19871E-09
780.43347	3.19913E-09
780.57178	3.19958E-09
780.71008	3.20008E-09
780.84839	3.20062E-09
780.98669	3.20120E-09
781.12500	3.20182E-09
781.26325	3.20249E-09
781.40155	3.20319E-09
781.53986	3.20393E-09
781.67816	3.20471E-09
781.81647	3.20553E-09
781.95477	3.20639E-09
782.09308	3.20730E-09
782.23138	3.20824E-09
782.36969	3.20921E-09
782.50800	3.21023E-09
782.64630	3.21128E-09
782.78461	3.21236E-09
782.92291	3.21348E-09
783.06122	3.21464E-09
783.19946	3.21582E-09
783.33777	3.21704E-09
783.47607	3.21829E-09
783.61438	3.21958E-09
783.75269	3.22089E-09
783.89099	3.22223E-09
784.02930	3.22359E-09
784.16760	3.22499E-09
784.30591	3.22641E-09
784.44421	3.22785E-09
784.58252	3.22932E-09
784.72083	3.23080E-09
784.85913	3.23231E-09
784.99744	3.23385E-09
785.13568	3.23539E-09
785.27399	3.23696E-09
785.41229	3.23854E-09
785.55060	3.24014E-09
785.68890	3.24176E-09
785.82721	3.24338E-09
785.96552	3.24502E-09
786.10382	3.24667E-09
786.24213	3.24833E-09
786.38043	3.25000E-09
786.51874	3.25168E-09
786.65704	3.25337E-09
786.79535	3.25506E-09
786.93359	3.25676E-09
787.07190	3.25846E-09
787.21021	3.26017E-09
787.34851	3.26188E-09
787.48682	3.26359E-09
787.62512	3.26531E-09
787.76343	3.26703E-09
787.90173	3.26875E-09
788.04004	3.27048E-09
788.17835	3.27220E-09
788.31665	3.27392E-09
788.45496	3.27565E-09
788.59326	3.27737E-09
788.73157	3.27909E-09
788.86981	3.28081E-09
789.00812	3.28253E-09
789.14642	3.28425E-09
789.28473	3.28597E-09
789.42304	3.28768E-09
789.56134	3.28939E-09
789.69965	3.29110E-09
789.83795	3.29281E-09
789.97626	3.29452E-09
790.11456	3.29623E-09
790.25287	3.29793E-09
790.39117	3.29964E-09
790.52948	3.30134E-09
790.66773	3.30305E-09
790.80603	3.30475E-09
790.94434	3.30646E-09
791.08264	3.30816E-09
791.22095	3.30987E-09
791.35925	3.31157E-09
791.49756	3.31328E-09
791.63586	3.31500E-09
791.77417	3.31671E-09
791.91248	3.31843E-09
792.05078	3.32015E-09
792.18909	3.32187E-09
792.32739	3.32360E-09
792.46570	3.32534E-09
792.60394	3.32708E-09
792.74225	3.32883E-09
792.88055	3.33059E-09
793.01886	3.33235E-09
793.15717	3.33412E-09
793.29547	3.33590E-09
793.43378	3.33769E-09
793.57208	3.33949E-09
793.71039	3.34130E-09
793.84869	3.34312E-09
793.98700	3.34495E-09
794.12531	3.34680E-09
794.26361	3.34865E-09
794.40186	3.35051E-09
794.54016	3.35239E-09
794.67847	3.35428E-09
794.81677	3.35618E-09
794.95508	3.35810E-09
795.09338	3.36003E-09
795.23169	3.36197E-09
795.37000	3.36392E-09
795.50830	3.36589E-09
795.64661	3.36787E-09
795.78491	3.36987E-09
795.92322	3.37187E-09
796.06152	3.37390E-09
796.19983	3.37593E-09
796.33807	3.37798E-09
796.47638	3.38003E-09
796.61469	3.38210E-09
796.75299	3.38419E-09
796.89130	3.38628E-09
797.02960	3.38839E-09
797.16791	3.39050E-09
797.30621	3.39263E-09
797.44452	3.39476E-09
797.58283	3.39691E-09
797.72113	3.39906E-09
797.85944	3.40122E-09
797.99774	3.40338E-09
798.13605	3.40555E-09
798.27429	3.40773E-09
798.41260	3.40991E-09
798.55090	3.41209E-09
798.68921	3.41428E-09
798.82752	3.41647E-09
798.96582	3.41865E-09
799.10413	3.42084E-09
799.24243	3.42303E-09
799.38074	3.42521E-09
799.51904	3.42739E-09
799.65735	3.42957E-09
799.79565	3.43174E-09
799.93396	3.43390E-09
800.07221	3.43605E-09
800.21051	3.43820E-09
800.34882	3.44033E-09
800.48712	3.44246E-09
800.62543	3.44457E-09
800.76373	3.44667E-09
800.90204	3.44875E-09
801.04034	3.45082E-09
801.17865	3.45287E-09
801.31696	3.45490E-09
801.45526	3.45691E-09
801.59357	3.45891E-09
801.73187	3.46088E-09
801.87018	3.46283E-09
802.00842	3.46475E-09
802.14673	3.46665E-09
802.28503	3.46852E-09
802.42334	3.47037E-09
802.56165	3.47219E-09
802.69995	3.47398E-09
802.83826	3.47573E-09
802.97656	3.47746E-09
803.11487	3.47916E-09
803.25317	3.48083E-09
803.39148	3.48246E-09
803.52979	3.48406E-09
803.66809	3.48563E-09
803.80634	3.48716E-09
803.94464	3.48865E-09
804.08295	3.49012E-09
804.22125	3.49154E-09
804.35956	3.49293E-09
804.49786	3.49429E-09
804.63617	3.49560E-09
804.77448	3.49688E-09
804.91278	3.49812E-09
805.05109	3.49932E-09
805.18939	3.50049E-09
805.32770	3.50162E-09
805.46600	3.50271E-09
805.60431	3.50377E-09
805.74255	3.50479E-09
805.88086	3.50577E-09
806.01917	3.50672E-09
806.15747	3.50764E-09
806.29578	3.50852E-09
806.43408	3.50936E-09
806.57239	3.51017E-09
806.71069	3.51094E-09
806.84900	3.51169E-09
806.98731	3.51240E-09
807.12561	3.51309E-09
807.26392	3.51374E-09
807.40222	3.51437E-09
807.54047	3.51497E-09
807.67877	3.51554E-09
807.81708	3.51608E-09
807.95538	3.51660E-09
808.09369	3.51709E-09
808.23200	3.51757E-09
808.37030	3.51802E-09
808.50861	3.51845E-09
808.64691	3.51886E-09
808.78522	3.51926E-09
808.92352	3.51964E-09
809.06183	3.52001E-09
809.20013	3.52037E-09
809.33844	3.52071E-09
809.47669	3.52104E-09
809.61499	3.52137E-09
809.75330	3.52169E-09
809.89160	3.52200E-09
810.02991	3.52231E-09
810.16821	3.52262E-09
810.30652	3.52292E-09
810.44482	3.52323E-09
810.58313	3.52354E-09
810.72144	3.52385E-09
810.85974	3.52417E-09
810.99805	3.52449E-09
811.13635	3.52483E-09
811.27460	3.52517E-09
811.41290	3.52553E-09
811.55121	3.52590E-09
811.68951	3.52628E-09
811.82782	3.52668E-09
811.96613	3.52710E-09
812.10443	3.52754E-09
812.24274	3.52800E-09
812.38104	3.52848E-09
812.51935	3.52899E-09
812.65765	3.52951E-09
812.79596	3.53007E-09
812.93427	3.53065E-09
813.07257	3.53125E-09
813.21082	3.53189E-09
813.34912	3.53256E-09
813.48743	3.53325E-09
813.62573	3.53398E-09
813.76404	3.53475E-09
813.90234	3.53554E-09
814.04065	3.53637E-09
814.17896	3.53724E-09
814.31726	3.53815E-09
814.45557	3.53909E-09
814.59387	3.54007E-09
814.73218	3.54109E-09
814.87048	3.54214E-09
815.00879	3.54324E-09
815.14703	3.54437E-09
815.28534	3.54554E-09
815.42365	3.54676E-09
815.56195	3.54801E-09
815.70026	3.54931E-09
815.83856	3.55064E-09
815.97687	3.55201E-09
816.11517	3.55343E-09
816.25348	3.55488E-09
816.39179	3.55637E-09
816.53009	3.55791E-09
816.66840	3.55948E-09
816.80670	3.56109E-09
816.94495	3.56273E-09
817.08325	3.56441E-09
817.22156	3.56613E-09
817.35986	3.56788E-09
817.49817	3.56967E-09
817.63648	3.57150E-09
817.77478	3.57335E-09
817.91309	3.57524E-09
818.05139	3.57716E-09
818.18970	3.57910E-09
818.32800	3.58107E-09
818.46631	3.58307E-09
818.60461	3.58510E-09
818.74292	3.58715E-09
818.88117	3.58922E-09
819.01947	3.59131E-09
819.15778	3.59341E-09
819.29608	3.59554E-09
819.43439	3.59768E-09
819.57269	3.59983E-09
819.71100	3.60200E-09
819.84930	3.60417E-09
819.98761	3.60636E-09
820.12592	3.60855E-09
820.26422	3.61074E-09
820.40253	3.61293E-09
820.54083	3.61512E-09
820.67908	3.61731E-09
820.81738	3.61949E-09
820.95569	3.62166E-09
821.09399	3.62383E-09
821.23230	3.62599E-09
821.37061	3.62813E-09
821.50891	3.63025E-09
821.64722	3.63235E-09
821.78552	3.63443E-09
821.92383	3.63648E-09
822.06213	3.63851E-09
822.20044	3.64051E-09
822.33875	3.64249E-09
822.47705	3.64442E-09
822.61530	3.64633E-09
822.75360	3.64819E-09
822.89191	3.65002E-09
823.03021	3.65181E-09
823.16852	3.65355E-09
823.30682	3.65524E-09
823.44513	3.65689E-09
823.58344	3.65849E-09
823.72174	3.66004E-09
823.86005	3.66154E-09
823.99835	3.66298E-09
824.13666	3.66437E-09
824.27496	3.66569E-09
824.41321	3.66696E-09
824.55151	3.66817E-09
824.68982	3.66932E-09
824.82813	3.67040E-09
824.96643	3.67142E-09
825.10474	3.67237E-09
825.24304	3.67326E-09
825.38135	3.67408E-09
825.51965	3.67483E-09
825.65796	3.67552E-09
825.79627	3.67614E-09
825.93457	3.67669E-09
826.07288	3.67718E-09
826.21118	3.67759E-09
826.34943	3.67793E-09
826.48773	3.67821E-09
826.62604	3.67842E-09
826.76434	3.67856E-09
826.90265	3.67863E-09
827.04096	3.67864E-09
827.17926	3.67859E-09
827.31757	3.67846E-09
827.45587	3.67828E-09
827.59418	3.67803E-09
827.73248	3.67772E-09
827.87079	3.67735E-09
828.00909	3.67692E-09
828.14740	3.67644E-09
828.28565	3.67589E-09
828.42395	3.67530E-09
828.56226	3.67466E-09
828.70056	3.67396E-09
828.83887	3.67322E-09
828.97717	3.67244E-09
829.11548	3.67161E-09
829.25378	3.67074E-09
829.39209	3.66983E-09
829.53040	3.66889E-09
829.66870	3.66791E-09
829.80701	3.66691E-09
829.94531	3.66587E-09
830.08356	3.66481E-09
830.22186	3.66373E-09
830.36017	3.66263E-09
830.49847	3.66151E-09
830.63678	3.66038E-09
830.77509	3.65924E-09
830.91339	3.65809E-09
831.05170	3.65693E-09
831.19000	3.65577E-09
831.32831	3.65461E-09
831.46661	3.65346E-09
831.60492	3.65231E-09
831.74323	3.65116E-09
831.88153	3.65003E-09
832.01978	3.64891E-09
832.15808	3.64781E-09
832.29639	3.64673E-09
832.43469	3.64567E-09
832.57300	3.64463E-09
832.71130	3.64362E-09
832.84961	3.64264E-09
832.98792	3.64170E-09
833.12622	3.64078E-09
833.26453	3.63990E-09
833.40283	3.63906E-09
833.54114	3.63825E-09
833.67944	3.63749E-09
833.81769	3.63677E-09
833.95599	3.63609E-09
834.09430	3.63546E-09
834.23261	3.63488E-09
834.37091	3.63436E-09
834.50922	3.63388E-09
834.64752	3.63345E-09
834.78583	3.63307E-09
834.92413	3.63275E-09
835.06244	3.63249E-09
835.20075	3.63228E-09
835.33905	3.63213E-09
835.47736	3.63203E-09
835.61566	3.63199E-09
835.75391	3.63201E-09
835.89221	3.63209E-09
836.03052	3.63223E-09
836.16882	3.63242E-09
836.30713	3.63267E-09
836.44544	3.63298E-09
836.58374	3.63334E-09
836.72205	3.63377E-09
836.86035	3.63424E-09
836.99866	3.63478E-09
837.13696	3.63536E-09
837.27527	3.63600E-09
837.41357	3.63669E-09
837.55182	3.63744E-09
837.69013	3.63823E-09
837.82843	3.63907E-09
837.96674	3.63996E-09
838.10504	3.64089E-09
838.24335	3.64187E-09
838.38165	3.64289E-09
838.51996	3.64395E-09
838.65826	3.64505E-09
838.79657	3.64619E-09
838.93488	3.64736E-09
839.07318	3.64856E-09
839.21149	3.64979E-09
839.34979	3.65106E-09
839.48804	3.65234E-09
839.62634	3.65366E-09
839.76465	3.65499E-09
839.90295	3.65634E-09
840.04126	3.65771E-09
840.17957	3.65910E-09
840.31787	3.66049E-09
840.45618	3.66190E-09
840.59448	3.66331E-09
840.73279	3.66473E-09
840.87109	3.66615E-09
841.00940	3.66757E-09
841.14771	3.66899E-09
841.28595	3.67040E-09
841.42426	3.67181E-09
841.56256	3.67321E-09
841.70087	3.67460E-09
841.83917	3.67598E-09
841.97748	3.67734E-09
842.11578	3.67868E-09
842.25409	3.68000E-09
842.39240	3.68130E-09
842.53070	3.68258E-09
842.66901	3.68383E-09
842.80731	3.68506E-09
842.94562	3.68626E-09
843.08392	3.68742E-09
843.22217	3.68856E-09
843.36047	3.68966E-09
843.49878	3.69073E-09
843.63709	3.69177E-09
843.77539	3.69276E-09
843.91370	3.69373E-09
844.05200	3.69465E-09
844.19031	3.69554E-09
844.32861	3.69638E-09
844.46692	3.69719E-09
844.60523	3.69796E-09
844.74353	3.69869E-09
844.88184	3.69938E-09
845.02014	3.70003E-09
845.15839	3.70064E-09
845.29669	3.70121E-09
845.43500	3.70174E-09
845.57330	3.70222E-09
845.71161	3.70268E-09
845.84992	3.70309E-09
845.98822	3.70347E-09
846.12653	3.70380E-09
846.26483	3.70411E-09
846.40314	3.70438E-09
846.54144	3.70461E-09
846.67975	3.70481E-09
846.81805	3.70498E-09
846.95630	3.70512E-09
847.09460	3.70523E-09
847.23291	3.70531E-09
847.37122	3.70536E-09
847.50952	3.70539E-09
847.64783	3.70540E-09
847.78613	3.70538E-09
847.92444	3.70535E-09
848.06274	3.70530E-09
848.20105	3.70523E-09
848.33936	3.70514E-09
848.47766	3.70504E-09
848.61597	3.70493E-09
848.75427	3.70480E-09
848.89252	3.70467E-09
849.03082	3.70454E-09
849.16913	3.70439E-09
849.30743	3.70424E-09
849.44574	3.70410E-09
849.58405	3.70395E-09
849.72235	3.70380E-09
849.86066	3.70365E-09
849.99896	3.70350E-09
850.13727	3.70336E-09
850.27557	3.70323E-09
850.41388	3.70311E-09
850.55219	3.70299E-09
850.69043	3.70288E-09
850.82874	3.70279E-09
850.96704	3.70270E-09
851.10535	3.70263E-09
851.24365	3.70257E-09
851.38196	3.70252E-09
851.52026	3.70249E-09
851.65857	3.70247E-09
851.79688	3.70246E-09
851.93518	3.70247E-09
852.07349	3.70250E-09
852.21179	3.70255E-09
852.35010	3.70261E-09
852.48840	3.70268E-09
852.62665	3.70277E-09
852.76495	3.70288E-09
852.90326	3.70301E-09
853.04157	3.70315E-09
853.17987	3.70330E-09
853.31818	3.70347E-09
853.45648	3.70366E-09
853.59479	3.70386E-09
853.73309	3.70408E-09
853.87140	3.70430E-09
854.00971	3.70454E-09
854.14801	3.70479E-09
854.28632	3.70505E-09
854.42456	3.70531E-09
854.56287	3.70559E-09
854.70117	3.70588E-09
854.83948	3.70616E-09
854.97778	3.70645E-09
855.11609	3.70675E-09
855.25440	3.70704E-09
855.39270	3.70734E-09
855.53101	3.70763E-09
855.66931	3.70793E-09
855.80762	3.70822E-09
855.94592	3.70851E-09
856.08423	3.70879E-09
856.22253	3.70906E-09
856.36078	3.70932E-09
856.49908	3.70958E-09
856.63739	3.70982E-09
856.77570	3.71005E-09
856.91400	3.71027E-09
857.05231	3.71047E-09
857.19061	3.71066E-09
857.32892	3.71083E-09
857.46722	3.71097E-09
857.60553	3.71111E-09
857.74384	3.71122E-09
857.88214	3.71130E-09
858.02045	3.71137E-09
858.15875	3.71141E-09
858.29700	3.71143E-09
858.43530	3.71142E-09
858.57361	3.71139E-09
858.71191	3.71134E-09
858.85022	3.71125E-09
858.98853	3.71115E-09
859.12683	3.71101E-09
859.26514	3.71085E-09
859.40344	3.71067E-09
859.54175	3.71046E-09
859.68005	3.71022E-09
859.81836	3.70996E-09
859.95667	3.70967E-09
860.09491	3.70935E-09
860.23322	3.70901E-09
860.37152	3.70865E-09
860.50983	3.70826E-09
860.64813	3.70785E-09
860.78644	3.70742E-09
860.92474	3.70697E-09
861.06305	3.70651E-09
861.20136	3.70602E-09
861.33966	3.70552E-09
861.47797	3.70500E-09
861.61627	3.70446E-09
861.75458	3.70392E-09
861.89288	3.70336E-09
862.03113	3.70280E-09
862.16943	3.70222E-09
862.30774	3.70164E-09
862.44605	3.70105E-09
862.58435	3.70046E-09
862.72266	3.69987E-09
862.86096	3.69928E-09
862.99927	3.69870E-09
863.13757	3.69811E-09
863.27588	3.69754E-09
863.41419	3.69697E-09
863.55249	3.69641E-09
863.69080	3.69587E-09
863.82904	3.69534E-09
863.96735	3.69482E-09
864.10565	3.69432E-09
864.24396	3.69385E-09
864.38226	3.69339E-09
864.52057	3.69295E-09
864.65888	3.69254E-09
864.79718	3.69216E-09
864.93549	3.69181E-09
865.07379	3.69149E-09
865.21210	3.69119E-09
865.35040	3.69093E-09
865.48871	3.69071E-09
865.62701	3.69052E-09
865.76526	3.69037E-09
865.90356	3.69026E-09
866.04187	3.69018E-09
866.18018	3.69015E-09
866.31848	3.69016E-09
866.45679	3.69021E-09
866.59509	3.69030E-09
866.73340	3.69044E-09
866.87170	3.69062E-09
867.01001	3.69085E-09
867.14832	3.69112E-09
867.28662	3.69144E-09
867.42493	3.69181E-09
867.56317	3.69222E-09
867.70148	3.69268E-09
867.83978	3.69318E-09
867.97809	3.69373E-09
868.11639	3.69432E-09
868.25470	3.69496E-09
868.39301	3.69564E-09
868.53131	3.69637E-09
868.66962	3.69715E-09
868.80792	3.69796E-09
868.94623	3.69882E-09
869.08453	3.69971E-09
869.22284	3.70065E-09
869.36115	3.70162E-09
869.49939	3.70263E-09
869.63770	3.70367E-09
869.77600	3.70475E-09
869.91431	3.70586E-09
870.05261	3.70700E-09
870.19092	3.70817E-09
870.32922	3.70936E-09
870.46753	3.71058E-09
870.60584	3.71183E-09
870.74414	3.71309E-09
870.88245	3.71438E-09
871.02075	3.71569E-09
871.15906	3.71701E-09
871.29730	3.71834E-09
871.43561	3.71968E-09
871.57391	3.72103E-09
871.71222	3.72240E-09
871.85053	3.72376E-09
871.98883	3.72513E-09
872.12714	3.72650E-09
872.26544	3.72787E-09
872.40375	3.72923E-09
872.54205	3.73060E-09
872.68036	3.73195E-09
872.81867	3.73329E-09
872.95697	3.73463E-09
873.09528	3.73595E-09
873.23352	3.73726E-09
873.37183	3.73855E-09
873.51013	3.73982E-09
873.64844	3.74107E-09
873.78674	3.74230E-09
873.92505	3.74351E-09
874.06335	3.74470E-09
874.20166	3.74586E-09
874.33997	3.74699E-09
874.47827	3.74809E-09
874.61658	3.74917E-09
874.75488	3.75022E-09
874.89319	3.75124E-09
875.03149	3.75222E-09
875.16974	3.75318E-09
875.30804	3.75410E-09
875.44635	3.75499E-09
875.58466	3.75585E-09
875.72296	3.75668E-09
875.86127	3.75747E-09
875.99957	3.75823E-09
876.13788	3.75896E-09
876.27618	3.75966E-09
876.41449	3.76033E-09
876.55280	3.76096E-09
876.69110	3.76157E-09
876.82941	3.76215E-09
876.96765	3.76269E-09
877.10596	3.76322E-09
877.24426	3.76372E-09
877.38257	3.76419E-09
877.52087	3.76464E-09
877.65918	3.76508E-09
877.79749	3.76549E-09
877.93579	3.76588E-09
878.07410	3.76626E-09
878.21240	3.76663E-09
878.35071	3.76698E-09
878.48901	3.76732E-09
878.62732	3.76765E-09
878.76563	3.76798E-09
878.90387	3.76830E-09
879.04218	3.76862E-09
879.18048	3.76894E-09
879.31879	3.76926E-09
879.45709	3.76958E-09
879.59540	3.76991E-09
879.73370	3.77025E-09
879.87201	3.77060E-09
880.01032	3.77097E-09
880.14862	3.77134E-09
880.28693	3.77174E-09
880.42523	3.77216E-09
880.56354	3.77260E-09
880.70178	3.77306E-09
880.84009	3.77355E-09
880.97839	3.77407E-09
881.11670	3.77461E-09
881.25501	3.77519E-09
881.39331	3.77581E-09
881.53162	3.77646E-09
881.66992	3.77714E-09
881.80823	3.77787E-09
881.94653	3.77863E-09
882.08484	3.77944E-09
882.22315	3.78029E-09
882.36145	3.78118E-09
882.49976	3.78212E-09
882.63800	3.78311E-09
882.77631	3.78414E-09
882.91461	3.78522E-09
883.05292	3.78635E-09
883.19122	3.78753E-09
883.32953	3.78877E-09
883.46783	3.79005E-09
883.60614	3.79138E-09
883.74445	3.79276E-09
883.88275	3.79420E-09
884.02106	3.79569E-09
884.15936	3.79722E-09
884.29767	3.79881E-09
884.43591	3.80045E-09
884.57422	3.80214E-09
884.71252	3.80388E-09
884.85083	3.80566E-09
884.98914	3.80749E-09
885.12744	3.80937E-09
885.26575	3.81130E-09
885.40405	3.81326E-09
885.54236	3.81527E-09
885.68066	3.81732E-09
885.81897	3.81942E-09
885.95728	3.82154E-09
886.09558	3.82371E-09
886.23389	3.82591E-09
886.37213	3.82814E-09
886.51044	3.83040E-09
886.64874	3.83269E-09
886.78705	3.83500E-09
886.92535	3.83734E-09
887.06366	3.83970E-09
887.20197	3.84208E-09
887.34027	3.84448E-09
887.47858	3.84689E-09
887.61688	3.84931E-09
887.75519	3.85174E-09
887.89349	3.85418E-09
888.03180	3.85662E-09
888.17011	3.85907E-09
888.30835	3.86151E-09
888.44666	3.86395E-09
888.58496	3.86639E-09
888.72327	3.86881E-09
888.86157	3.87123E-09
888.99988	3.87362E-09
889.13818	3.87601E-09
889.27649	3.87837E-09
889.41480	3.88072E-09
889.55310	3.88304E-09
889.69141	3.88533E-09
889.82971	3.88760E-09
889.96802	3.88984E-09
890.10626	3.89204E-09
890.24457	3.89421E-09
890.38287	3.89634E-09
890.52118	3.89844E-09
890.65949	3.90049E-09
890.79779	3.90250E-09
890.93610	3.90447E-09
891.07440	3.90638E-09
891.21271	3.90826E-09
891.35101	3.91008E-09
891.48932	3.91186E-09
891.62763	3.91359E-09
891.76593	3.91526E-09
891.90424	3.91688E-09
892.04248	3.91845E-09
892.18079	3.91996E-09
892.31909	3.92142E-09
892.45740	3.92283E-09
892.59570	3.92419E-09
892.73401	3.92548E-09
892.87231	3.92673E-09
893.01062	3.92792E-09
893.14893	3.92905E-09
893.28723	3.93013E-09
893.42554	3.93116E-09
893.56384	3.93214E-09
893.70215	3.93306E-09
893.84039	3.93393E-09
893.97870	3.93475E-09
894.11700	3.93552E-09
894.25531	3.93623E-09
894.39362	3.93691E-09
894.53192	3.93754E-09
894.67023	3.93812E-09
894.80853	3.93866E-09
894.94684	3.93916E-09
895.08514	3.93962E-09
895.22345	3.94004E-09
895.36176	3.94043E-09
895.50006	3.94078E-09
895.63837	3.94110E-09
895.77661	3.94138E-09
895.91492	3.94164E-09
896.05322	3.94187E-09
896.19153	3.94207E-09
896.32983	3.94225E-09
896.46814	3.94241E-09
896.60645	3.94254E-09
896.74475	3.94266E-09
896.88306	3.94276E-09
897.02136	3.94285E-09
897.15967	3.94293E-09
897.29797	3.94300E-09
897.43628	3.94305E-09
897.57452	3.94311E-09
897.71283	3.94315E-09
897.85114	3.94320E-09
897.98944	3.94324E-09
898.12775	3.94328E-09
898.26605	3.94333E-09
898.40436	3.94338E-09
898.54266	3.94343E-09
898.68097	3.94349E-09
898.81928	3.94356E-09
898.95758	3.94364E-09
899.09589	3.94374E-09
899.23419	3.94384E-09
899.37250	3.94395E-09
899.51074	3.94408E-09
899.64905	3.94422E-09
899.78735	3.94439E-09
899.92566	3.94457E-09
900.06397	3.94476E-09
900.20227	3.94498E-09
900.34058	3.94522E-09
900.47888	3.94547E-09
900.61719	3.94575E-09
900.75549	3.94606E-09
900.89380	3.94638E-09
901.03210	3.94673E-09
901.17041	3.94710E-09
901.30866	3.94749E-09
901.44696	3.94792E-09
901.58527	3.94836E-09
901.72357	3.94883E-09
901.86188	3.94932E-09
902.00018	3.94984E-09
902.13849	3.95038E-09
902.27679	3.95094E-09
902.41510	3.95154E-09
902.55341	3.95215E-09
902.69171	3.95279E-09
902.83002	3.95345E-09
902.96832	3.95413E-09
903.10663	3.95484E-09
903.24487	3.95557E-09
903.38318	3.95632E-09
903.52148	3.95709E-09
903.65979	3.95788E-09
903.79810	3.95869E-09
903.93640	3.95952E-09
904.07471	3.96037E-09
904.21301	3.96124E-09
904.35132	3.96212E-09
904.48962	3.96303E-09
904.62793	3.96395E-09
904.76624	3.96488E-09
904.90454	3.96583E-09
905.04285	3.96680E-09
905.18109	3.96778E-09
905.31940	3.96876E-09
905.45770	3.96977E-09
905.59601	3.97078E-09
905.73431	3.97181E-09
905.87262	3.97285E-09
906.01093	3.97390E-09
906.14923	3.97496E-09
906.28754	3.97603E-09
906.42584	3.97711E-09
906.56415	3.97819E-09
906.70245	3.97929E-09
906.84076	3.98039E-09
906.97900	3.98149E-09
907.11731	3.98261E-09
907.25562	3.98373E-09
907.39392	3.98486E-09
907.53223	3.98599E-09
907.67053	3.98712E-09
907.80884	3.98826E-09
907.94714	3.98941E-09
908.08545	3.99056E-09
908.22376	3.99171E-09
908.36206	3.99287E-09
908.50037	3.99403E-09
908.63867	3.99520E-09
908.77698	3.99637E-09
908.91522	3.99754E-09
909.05353	3.99872E-09
909.19183	3.99990E-09
909.33014	4.00109E-09
909.46845	4.00228E-09
909.60675	4.00347E-09
909.74506	4.00467E-09
909.88336	4.00587E-09
910.02167	4.00708E-09
910.15997	4.00829E-09
910.29828	4.00950E-09
910.43658	4.01072E-09
910.57489	4.01195E-09
910.71314	4.01318E-09
910.85144	4.01441E-09
910.98975	4.01564E-09
911.12805	4.01688E-09
911.26636	4.01813E-09
911.40466	4.01938E-09
911.54297	4.02063E-09
911.68127	4.02189E-09
911.81958	4.02316E-09
911.95789	4.02443E-09
912.09619	4.02570E-09
912.23450	4.02698E-09
912.37280	4.02827E-09
912.51111	4.02955E-09
912.64935	4.03084E-09
912.78766	4.03214E-09
912.92596	4.03344E-09
913.06427	4.03474E-09
913.20258	4.03605E-09
913.34088	4.03737E-09
913.47919	4.03868E-09
913.61749	4.04000E-09
913.75580	4.04132E-09
913.89410	4.04264E-09
914.03241	4.04397E-09
914.17072	4.04529E-09
914.30902	4.04662E-09
914.44727	4.04795E-09
914.58557	4.04928E-09
914.72388	4.05061E-09
914.86218	4.05194E-09
915.00049	4.05326E-09
915.13879	4.05459E-09
915.27710	4.05591E-09
915.41541	4.05724E-09
915.55371	4.05856E-09
915.69202	4.05988E-09
915.83032	4.06119E-09
915.96863	4.06250E-09
916.10693	4.06380E-09
916.24524	4.06510E-09
916.38348	4.06639E-09
916.52179	4.06768E-09
916.66010	4.06897E-09
916.79840	4.07024E-09
916.93671	4.07151E-09
917.07501	4.07277E-09
917.21332	4.07403E-09
917.35162	4.07527E-09
917.48993	4.07651E-09
917.62824	4.07773E-09
917.76654	4.07895E-09
917.90485	4.08015E-09
918.04315	4.08135E-09
918.18146	4.08254E-09
918.31970	4.08371E-09
918.45801	4.08488E-09
918.59631	4.08604E-09
918.73462	4.08718E-09
918.87293	4.08832E-09
919.01123	4.08945E-09
919.14954	4.09056E-09
919.28784	4.09167E-09
919.42615	4.09276E-09
919.56445	4.09385E-09
919.70276	4.09493E-09
919.84106	4.09600E-09
919.97937	4.09706E-09
920.11762	4.09810E-09
920.25592	4.09914E-09
920.39423	4.10018E-09
920.53253	4.10120E-09
920.67084	4.10222E-09
920.80914	4.10323E-09
920.94745	4.10424E-09
921.08575	4.10524E-09
921.22406	4.10623E-09
921.36237	4.10723E-09
921.50067	4.10821E-09
921.63898	4.10920E-09
921.77728	4.11018E-09
921.91559	4.11116E-09
922.05383	4.11214E-09
922.19214	4.11312E-09
922.33044	4.11410E-09
922.46875	4.11508E-09
922.60706	4.11607E-09
922.74536	4.11705E-09
922.88367	4.11804E-09
923.02197	4.11904E-09
923.16028	4.12004E-09
923.29858	4.12105E-09
923.43689	4.12206E-09
923.57520	4.12308E-09
923.71350	4.12411E-09
923.85175	4.12515E-09
923.99005	4.12620E-09
924.12836	4.12727E-09
924.26666	4.12834E-09
924.40497	4.12942E-09
924.54327	4.13052E-09
924.68158	4.13163E-09
924.81989	4.13276E-09
924.95819	4.13390E-09
925.09650	4.13505E-09
925.23480	4.13622E-09
925.37311	4.13741E-09
925.51141	4.13862E-09
925.64972	4.13984E-09
925.78796	4.14108E-09
925.92627	4.14233E-09
926.06458	4.14361E-09
926.20288	4.14490E-09
926.34119	4.14621E-09
926.47949	4.14753E-09
926.61780	4.14887E-09
926.75610	4.15023E-09
926.89441	4.15160E-09
927.03272	4.15299E-09
927.17102	4.15440E-09
927.30933	4.15582E-09
927.44763	4.15726E-09
927.58588	4.15871E-09
927.72418	4.16017E-09
927.86249	4.16165E-09
928.00079	4.16314E-09
928.13910	4.16464E-09
928.27741	4.16615E-09
928.41571	4.16767E-09
928.55402	4.16920E-09
928.69232	4.17074E-09
928.83063	4.17228E-09
928.96893	4.17383E-09
929.10724	4.17538E-09
929.24554	4.17693E-09
929.38385	4.17848E-09
929.52210	4.18004E-09
929.66040	4.18159E-09
929.79871	4.18315E-09
929.93701	4.18469E-09
930.07532	4.18624E-09
930.21362	4.18778E-09
930.35193	4.18931E-09
930.49023	4.19083E-09
930.62854	4.19235E-09
930.76685	4.19385E-09
930.90515	4.19534E-09
931.04346	4.19682E-09
931.18176	4.19828E-09
931.32001	4.19973E-09
931.45831	4.20116E-09
931.59662	4.20258E-09
931.73492	4.20398E-09
931.87323	4.20536E-09
932.01154	4.20672E-09
932.14984	4.20806E-09
932.28815	4.20938E-09
932.42645	4.21068E-09
932.56476	4.21196E-09
932.70306	4.21322E-09
932.84137	4.21445E-09
932.97968	4.21566E-09
933.11798	4.21685E-09
933.25623	4.21801E-09
933.39453	4.21916E-09
933.53284	4.22028E-09
933.67114	4.22138E-09
933.80945	4.22246E-09
933.94775	4.22351E-09
934.08606	4.22455E-09
934.22437	4.22556E-09
934.36267	4.22656E-09
934.50098	4.22753E-09
934.63928	4.22849E-09
934.77759	4.22943E-09
934.91589	4.23035E-09
935.05420	4.23126E-09
935.19244	4.23215E-09
935.33075	4.23304E-09
935.46906	4.23390E-09
935.60736	4.23476E-09
935.74567	4.23561E-09
935.88397	4.23646E-09
936.02228	4.23730E-09
936.16058	4.23814E-09
936.29889	4.23897E-09
936.43720	4.23981E-09
936.57550	4.24064E-09
936.71381	4.24148E-09
936.85211	4.24233E-09
936.99036	4.24318E-09
937.12866	4.24404E-09
937.26697	4.24491E-09
937.40527	4.24580E-09
937.54358	4.24670E-09
937.68189	4.24762E-09
937.82019	4.24856E-09
937.95850	4.24951E-09
938.09680	4.25049E-09
938.23511	4.25150E-09
938.37341	4.25253E-09
938.51172	4.25359E-09
938.65002	4.25467E-09
938.78833	4.25579E-09
938.92658	4.25693E-09
939.06488	4.25811E-09
939.20319	4.25933E-09
939.34149	4.26058E-09
939.47980	4.26188E-09
939.61810	4.26320E-09
939.75641	4.26457E-09
939.89471	4.26598E-09
940.03302	4.26743E-09
940.17133	4.26893E-09
940.30963	4.27046E-09
940.44794	4.27204E-09
940.58624	4.27366E-09
940.72449	4.27532E-09
940.86279	4.27702E-09
941.00110	4.27877E-09
941.13940	4.28056E-09
941.27771	4.28239E-09
941.41602	4.28426E-09
941.55432	4.28617E-09
941.69263	4.28812E-09
941.83093	4.29010E-09
941.96924	4.29212E-09
942.10754	4.29418E-09
942.24585	4.29626E-09
942.38416	4.29838E-09
942.52246	4.30052E-09
942.66071	4.30269E-09
942.79901	4.30489E-09
942.93732	4.30710E-09
943.07562	4.30934E-09
943.21393	4.31159E-09
943.35223	4.31386E-09
943.49054	4.31614E-09
943.62885	4.31842E-09
943.76715	4.32071E-09
943.90546	4.32300E-09
944.04376	4.32529E-09
944.18207	4.32757E-09
944.32037	4.32985E-09
944.45862	4.33211E-09
944.59692	4.33435E-09
944.73523	4.33657E-09
944.87354	4.33877E-09
945.01184	4.34094E-09
945.15015	4.34308E-09
945.28845	4.34518E-09
945.42676	4.34725E-09
945.56506	4.34927E-09
945.70337	4.35125E-09
945.84168	4.35318E-09
945.97998	4.35506E-09
946.11829	4.35688E-09
946.25659	4.35864E-09
946.39484	4.36034E-09
946.53314	4.36197E-09
946.67145	4.36354E-09
946.80975	4.36503E-09
946.94806	4.36645E-09
947.08637	4.36780E-09
947.22467	4.36907E-09
947.36298	4.37026E-09
947.50128	4.37136E-09
947.63959	4.37239E-09
947.77789	4.37333E-09
947.91620	4.37418E-09
948.05450	4.37495E-09
948.19281	4.37564E-09
948.33106	4.37623E-09
948.46936	4.37674E-09
948.60767	4.37716E-09
948.74597	4.37749E-09
948.88428	4.37773E-09
949.02258	4.37788E-09
949.16089	4.37795E-09
949.29919	4.37793E-09
949.43750	4.37783E-09
949.57581	4.37765E-09
949.71411	4.37739E-09
949.85242	4.37705E-09
949.99072	4.37663E-09
950.12897	4.37614E-09
950.26727	4.37557E-09
950.40558	4.37494E-09
950.54388	4.37423E-09
950.68219	4.37347E-09
950.82050	4.37265E-09
950.95880	4.37176E-09
951.09711	4.37083E-09
951.23541	4.36984E-09
951.37372	4.36881E-09
951.51202	4.36773E-09
951.65033	4.36662E-09
951.78864	4.36547E-09
951.92694	4.36429E-09
952.06519	4.36308E-09
952.20349	4.36186E-09
952.34180	4.36061E-09
952.48010	4.35936E-09
952.61841	4.35809E-09
952.75671	4.35682E-09
952.89502	4.35555E-09
953.03333	4.35428E-09
953.17163	4.35303E-09
953.30994	4.35178E-09
953.44824	4.35055E-09
953.58655	4.34935E-09
953.72485	4.34818E-09
953.86310	4.34703E-09
954.00140	4.34592E-09
954.13971	4.34486E-09
954.27802	4.34384E-09
954.41632	4.34287E-09
954.55463	4.34196E-09
954.69293	4.34110E-09
954.83124	4.34030E-09
954.96954	4.33957E-09
955.10785	4.33891E-09
955.24616	4.33832E-09
955.38446	4.33781E-09
955.52277	4.33737E-09
955.66107	4.33702E-09
955.79932	4.33676E-09
955.93762	4.33659E-09
956.07593	4.33651E-09
956.21423	4.33652E-09
956.35254	4.33663E-09
956.49085	4.33684E-09
956.62915	4.33715E-09
956.76746	4.33757E-09
956.90576	4.33809E-09
957.04407	4.33872E-09
957.18237	4.33946E-09
957.32068	4.34031E-09
957.45898	4.34126E-09
957.59723	4.34233E-09
957.73554	4.34351E-09
957.87384	4.34481E-09
958.01215	4.34621E-09
958.15045	4.34773E-09
958.28876	4.34935E-09
958.42706	4.35109E-09
958.56537	4.35294E-09
958.70367	4.35489E-09
958.84198	4.35695E-09
958.98029	4.35912E-09
959.11859	4.36139E-09
959.25690	4.36377E-09
959.39520	4.36624E-09
959.53345	4.36881E-09
959.67175	4.37148E-09
959.81006	4.37423E-09
959.94836	4.37708E-09
960.08667	4.38001E-09
960.22498	4.38302E-09
960.36328	4.38610E-09
960.50159	4.38926E-09
960.63989	4.39249E-09
960.77820	4.39579E-09
960.91650	4.39914E-09
961.05481	4.40255E-09
961.19312	4.40602E-09
961.33136	4.40953E-09
961.46967	4.41308E-09
961.60797	4.41667E-09
961.74628	4.42029E-09
961.88458	4.42394E-09
962.02289	4.42761E-09
962.16119	4.43129E-09
962.29950	4.43499E-09
962.43781	4.43869E-09
962.57611	4.44239E-09
962.71442	4.44609E-09
962.85272	4.44977E-09
962.99103	4.45344E-09
963.12933	4.45709E-09
963.26758	4.46071E-09
963.40588	4.46430E-09
963.54419	4.46785E-09
963.68250	4.47136E-09
963.82080	4.47483E-09
963.95911	4.47825E-09
964.09741	4.48161E-09
964.23572	4.48492E-09
964.37402	4.48816E-09
964.51233	4.49133E-09
964.65064	4.49443E-09
964.78894	4.49746E-09
964.92725	4.50041E-09
965.06555	4.50328E-09
965.20380	4.50607E-09
965.34210	4.50877E-09
965.48041	4.51138E-09
965.61871	4.51391E-09
965.75702	4.51634E-09
965.89533	4.51868E-09
966.03363	4.52092E-09
966.17194	4.52307E-09
966.31024	4.52512E-09
966.44855	4.52708E-09
966.58685	4.52894E-09
966.72516	4.53070E-09
966.86346	4.53237E-09
967.00171	4.53394E-09
967.14002	4.53541E-09
967.27832	4.53680E-09
967.41663	4.53809E-09
967.55493	4.53929E-09
967.69324	4.54041E-09
967.83154	4.54144E-09
967.96985	4.54238E-09
968.10815	4.54324E-09
968.24646	4.54403E-09
968.38477	4.54475E-09
968.52307	4.54539E-09
968.66138	4.54595E-09
968.79968	4.54646E-09
968.93793	4.54690E-09
969.07623	4.54729E-09
969.21454	4.54762E-09
969.35284	4.54790E-09
969.49115	4.54814E-09
969.62946	4.54833E-09
969.76776	4.54848E-09
969.90607	4.54861E-09
970.04437	4.54870E-09
970.18268	4.54876E-09
970.32098	4.54881E-09
970.45929	4.54883E-09
970.59760	4.54884E-09
970.73584	4.54885E-09
970.87415	4.54885E-09
971.01245	4.54885E-09
971.15076	4.54885E-09
971.28906	4.54887E-09
971.42737	4.54889E-09
971.56567	4.54893E-09
971.70398	4.54899E-09
971.84229	4.54908E-09
971.98059	4.54919E-09
972.11890	4.54932E-09
972.25720	4.54950E-09
972.39551	4.54971E-09
972.53381	4.54995E-09
972.67206	4.55024E-09
972.81036	4.55058E-09
972.94867	4.55096E-09
973.08698	4.55139E-09
973.22528	4.55187E-09
973.36359	4.55241E-09
973.50189	4.55300E-09
973.64020	4.55365E-09
973.77850	4.55436E-09
973.91681	4.55513E-09
974.05512	4.55596E-09
974.19342	4.55685E-09
974.33173	4.55780E-09
974.46997	4.55881E-09
974.60828	4.55989E-09
974.74658	4.56102E-09
974.88489	4.56223E-09
975.02319	4.56349E-09
975.16150	4.56481E-09
975.29981	4.56620E-09
975.43811	4.56765E-09
975.57642	4.56915E-09
975.71472	4.57071E-09
975.85303	4.57233E-09
975.99133	4.57401E-09
976.12964	4.57573E-09
976.26794	4.57751E-09
976.40619	4.57934E-09
976.54450	4.58121E-09
976.68280	4.58313E-09
976.82111	4.58509E-09
976.95941	4.58709E-09
977.09772	4.58913E-09
977.23602	4.59121E-09
977.37433	4.59332E-09
977.51263	4.59546E-09
977.65094	4.59762E-09
977.78925	4.59982E-09
977.92755	4.60203E-09
978.06586	4.60427E-09
978.20416	4.60652E-09
978.34241	4.60879E-09
978.48071	4.61107E-09
978.61902	4.61335E-09
978.75732	4.61565E-09
978.89563	4.61795E-09
979.03394	4.62024E-09
979.17224	4.62254E-09
979.31055	4.62484E-09
979.44885	4.62713E-09
979.58716	4.62942E-09
979.72546	4.63169E-09
979.86377	4.63395E-09
980.00208	4.63620E-09
980.14032	4.63844E-09
980.27863	4.64066E-09
980.41693	4.64285E-09
980.55524	4.64504E-09
980.69354	4.64720E-09
980.83185	4.64933E-09
980.97015	4.65145E-09
981.10846	4.65354E-09
981.24677	4.65561E-09
981.38507	4.65765E-09
981.52338	4.65967E-09
981.66168	4.66167E-09
981.79999	4.66364E-09
981.93829	4.66559E-09
982.07654	4.66751E-09
982.21484	4.66941E-09
982.35315	4.67129E-09
982.49146	4.67314E-09
982.62976	4.67498E-09
982.76807	4.67679E-09
982.90637	4.67859E-09
983.04468	4.68036E-09
983.18298	4.68213E-09
983.32129	4.68388E-09
983.45960	4.68562E-09
983.59790	4.68734E-09
983.73621	4.68906E-09
983.87445	4.69078E-09
984.01276	4.69249E-09
984.15106	4.69420E-09
984.28937	4.69592E-09
984.42767	4.69764E-09
984.56598	4.69936E-09
984.70429	4.70110E-09
984.84259	4.70284E-09
984.98090	4.70461E-09
985.11920	4.70638E-09
985.25751	4.70819E-09
985.39581	4.71001E-09
985.53412	4.71187E-09
985.67242	4.71374E-09
985.81067	4.71566E-09
985.94898	4.71760E-09
986.08728	4.71958E-09
986.22559	4.72160E-09
986.36389	4.72367E-09
986.50220	4.72577E-09
986.64050	4.72792E-09
986.77881	4.73013E-09
986.91711	4.73237E-09
987.05542	4.73468E-09
987.19373	4.73704E-09
987.33203	4.73946E-09
987.47034	4.74193E-09
987.60858	4.74446E-09
987.74689	4.74705E-09
987.88519	4.74970E-09
988.02350	4.75241E-09
988.16180	4.75518E-09
988.30011	4.75802E-09
988.43842	4.76092E-09
988.57672	4.76388E-09
988.71503	4.76691E-09
988.85333	4.77000E-09
988.99164	4.77315E-09
989.12994	4.77636E-09
989.26825	4.77963E-09
989.40656	4.78296E-09
989.54480	4.78634E-09
989.68311	4.78978E-09
989.82141	4.79327E-09
989.95972	4.79681E-09
990.09802	4.80041E-09
990.23633	4.80405E-09
990.37463	4.80774E-09
990.51294	4.81146E-09
990.65125	4.81523E-09
990.78955	4.81903E-09
990.92786	4.82286E-09
991.06616	4.82672E-09
991.20447	4.83060E-09
991.34277	4.83451E-09
991.48102	4.83843E-09
991.61932	4.84236E-09
991.75763	4.84631E-09
991.89594	4.85026E-09
992.03424	4.85420E-09
992.17255	4.85815E-09
992.31085	4.86209E-09
992.44916	4.86601E-09
992.58746	4.86992E-09
992.72577	4.87380E-09
992.86408	4.87765E-09
993.00238	4.88147E-09
993.14069	4.88526E-09
993.27893	4.88900E-09
993.41724	4.89271E-09
993.55554	4.89636E-09
993.69385	4.89996E-09
993.83215	4.90351E-09
993.97046	4.90699E-09
994.10877	4.91041E-09
994.24707	4.91376E-09
994.38538	4.91704E-09
994.52368	4.92024E-09
994.66199	4.92337E-09
994.80029	4.92641E-09
994.93860	4.92937E-09
995.07690	4.93224E-09
995.21515	4.93502E-09
995.35346	4.93771E-09
995.49176	4.94031E-09
995.63007	4.94281E-09
995.76837	4.94522E-09
995.90668	4.94753E-09
996.04498	4.94974E-09
996.18329	4.95186E-09
996.32159	4.95387E-09
996.45990	4.95579E-09
996.59821	4.95761E-09
996.73651	4.95933E-09
996.87482	4.96095E-09
997.01306	4.96248E-09
997.15137	4.96391E-09
997.28967	4.96525E-09
997.42798	4.96651E-09
997.56628	4.96767E-09
997.70459	4.96875E-09
997.84290	4.96975E-09
997.98120	4.97067E-09
998.11951	4.97151E-09
998.25781	4.97227E-09
998.39612	4.97297E-09
998.53442	4.97361E-09
998.67273	4.97418E-09
998.81104	4.97470E-09
998.94928	4.97516E-09
999.08759	4.97558E-09
999.22589	4.97595E-09
999.36420	4.97629E-09
999.50250	4.97660E-09
999.64081	4.97688E-09
999.77911	4.97714E-09
999.91742	4.97738E-09
1000.05573	4.97762E-09
1000.19403	4.97786E-09
1000.33234	4.97809E-09
1000.47064	4.97834E-09
1000.60895	4.97860E-09
1000.74719	4.97888E-09
1000.88550	4.97918E-09
1001.02380	4.97952E-09
1001.16211	4.97988E-09
1001.30042	4.98030E-09
1001.43872	4.98077E-09
1001.57703	4.98128E-09
1001.71533	4.98187E-09
1001.85364	4.98252E-09
1001.99194	4.98324E-09
1002.13025	4.98404E-09
1002.26856	4.98492E-09
1002.40686	4.98589E-09
1002.54517	4.98695E-09
1002.68341	4.98810E-09
1002.82172	4.98937E-09
1002.96002	4.99074E-09
1003.09833	4.99222E-09
1003.23663	4.99381E-09
1003.37494	4.99552E-09
1003.51325	4.99734E-09
1003.65155	4.99930E-09
1003.78986	5.00138E-09
1003.92816	5.00359E-09
1004.06647	5.00593E-09
1004.20477	5.00840E-09
1004.34308	5.01101E-09
1004.48132	5.01375E-09
1004.61963	5.01664E-09
1004.75794	5.01966E-09
1004.89624	5.02281E-09
1005.03455	5.02611E-09
1005.17285	5.02955E-09
1005.31116	5.03313E-09
1005.44946	5.03685E-09
1005.58777	5.04070E-09
1005.72607	5.04469E-09
1005.86438	5.04882E-09
1006.00269	5.05308E-09
1006.14099	5.05747E-09
1006.27930	5.06199E-09
1006.41754	5.06663E-09
1006.55585	5.07141E-09
1006.69415	5.07630E-09
1006.83246	5.08131E-09
1006.97076	5.08644E-09
1007.10907	5.09167E-09
1007.24738	5.09701E-09
1007.38568	5.10246E-09
1007.52399	5.10801E-09
1007.66229	5.11365E-09
1007.80060	5.11937E-09
1007.93890	5.12519E-09
1008.07721	5.13108E-09
1008.21552	5.13705E-09
1008.35376	5.14309E-09
1008.49207	5.14920E-09
1008.63037	5.15536E-09
1008.76868	5.16158E-09
1008.90698	5.16785E-09
1009.04529	5.17417E-09
1009.18359	5.18053E-09
1009.32190	5.18692E-09
1009.46021	5.19334E-09
1009.59851	5.19978E-09
1009.73682	5.20625E-09
1009.87512	5.21272E-09
1010.01343	5.21921E-09
1010.15167	5.22570E-09
1010.28998	5.23219E-09
1010.42828	5.23867E-09
1010.56659	5.24515E-09
1010.70490	5.25162E-09
1010.84320	5.25806E-09
1010.98151	5.26449E-09
1011.11981	5.27089E-09
1011.25812	5.27726E-09
1011.39642	5.28361E-09
1011.53473	5.28992E-09
1011.67304	5.29619E-09
1011.81134	5.30242E-09
1011.94965	5.30861E-09
1012.08789	5.31475E-09
1012.22620	5.32085E-09
1012.36450	5.32690E-09
1012.50281	5.33290E-09
1012.64111	5.33884E-09
1012.77942	5.34474E-09
1012.91773	5.35058E-09
1013.05603	5.35637E-09
1013.19434	5.36210E-09
1013.33264	5.36778E-09
1013.47095	5.37341E-09
1013.60925	5.37898E-09
1013.74756	5.38450E-09
1013.88580	5.38997E-09
1014.02411	5.39538E-09
1014.16242	5.40075E-09
1014.30072	5.40608E-09
1014.43903	5.41135E-09
1014.57733	5.41659E-09
1014.71564	5.42178E-09
1014.85394	5.42694E-09
1014.99225	5.43206E-09
1015.13055	5.43715E-09
1015.26886	5.44221E-09
1015.40717	5.44724E-09
1015.54547	5.45225E-09
1015.68378	5.45724E-09
1015.82202	5.46221E-09
1015.96033	5.46717E-09
1016.09863	5.47211E-09
1016.23694	5.47706E-09
1016.37524	5.48200E-09
1016.51355	5.48694E-09
1016.65186	5.49188E-09
1016.79016	5.49684E-09
1016.92847	5.50180E-09
1017.06677	5.50678E-09
1017.20508	5.51179E-09
1017.34338	5.51681E-09
1017.48169	5.52186E-09
1017.61993	5.52695E-09
1017.75824	5.53207E-09
1017.89655	5.53722E-09
1018.03485	5.54242E-09
1018.17316	5.54766E-09
1018.31146	5.55294E-09
1018.44977	5.55827E-09
1018.58807	5.56366E-09
1018.72638	5.56909E-09
1018.86469	5.57458E-09
1019.00299	5.58012E-09
1019.14130	5.58572E-09
1019.27960	5.59138E-09
1019.41791	5.59710E-09
1019.55615	5.60288E-09
1019.69446	5.60872E-09
1019.83276	5.61463E-09
1019.97107	5.62059E-09
1020.10938	5.62662E-09
1020.24768	5.63270E-09
1020.38599	5.63884E-09
1020.52429	5.64505E-09
1020.66260	5.65130E-09
1020.80090	5.65762E-09
1020.93921	5.66398E-09
1021.07752	5.67040E-09
1021.21582	5.67686E-09
1021.35413	5.68337E-09
1021.49237	5.68992E-09
1021.63068	5.69651E-09
1021.76898	5.70314E-09
1021.90729	5.70979E-09
1022.04559	5.71646E-09
1022.18390	5.72316E-09
1022.32221	5.72987E-09
1022.46051	5.73660E-09
1022.59882	5.74333E-09
1022.73712	5.75006E-09
1022.87543	5.75678E-09
1023.01373	5.76349E-09
1023.15204	5.77018E-09
1023.29028	5.77686E-09
1023.42859	5.78350E-09
1023.56690	5.79011E-09
1023.70520	5.79668E-09
1023.84351	5.80320E-09
1023.98181	5.80967E-09
1024.12012	5.81609E-09
1024.25842	5.82243E-09
1024.39673	5.82871E-09
1024.53503	5.83491E-09
1024.67334	5.84102E-09
1024.81165	5.84704E-09
1024.94995	5.85296E-09
1025.08826	5.85879E-09
1025.22656	5.86450E-09
1025.36487	5.87011E-09
1025.50317	5.87559E-09
1025.64148	5.88095E-09
1025.77979	5.88620E-09
1025.91809	5.89130E-09
1026.05627	5.89628E-09
1026.19458	5.90112E-09
1026.33289	5.90582E-09
1026.47119	5.91036E-09
1026.60950	5.91478E-09
1026.74780	5.91903E-09
1026.88611	5.92314E-09
1027.02441	5.92710E-09
1027.16272	5.93090E-09
1027.30103	5.93455E-09
1027.43933	5.93804E-09
1027.57764	5.94137E-09
1027.71594	5.94455E-09
1027.85425	5.94758E-09
1027.99255	5.95046E-09
1028.13086	5.95318E-09
1028.26917	5.95575E-09
1028.40747	5.95817E-09
1028.54578	5.96045E-09
1028.68408	5.96259E-09
1028.82239	5.96459E-09
1028.96069	5.96645E-09
1029.09900	5.96818E-09
1029.23731	5.96979E-09
1029.37561	5.97127E-09
1029.51392	5.97263E-09
1029.65222	5.97388E-09
1029.79053	5.97503E-09
1029.92871	5.97606E-09
1030.06702	5.97700E-09
1030.20532	5.97786E-09
1030.34363	5.97863E-09
1030.48193	5.97932E-09
1030.62024	5.97994E-09
1030.75855	5.98050E-09
1030.89685	5.98100E-09
1031.03516	5.98145E-09
1031.17346	5.98186E-09
1031.31177	5.98223E-09
1031.45007	5.98257E-09
1031.58838	5.98288E-09
1031.72669	5.98318E-09
1031.86499	5.98347E-09
1032.00330	5.98376E-09
1032.14160	5.98404E-09
1032.27991	5.98435E-09
1032.41821	5.98467E-09
1032.55652	5.98502E-09
1032.69482	5.98540E-09
1032.83313	5.98582E-09
1032.97144	5.98628E-09
1033.10974	5.98679E-09
1033.24805	5.98735E-09
1033.38635	5.98797E-09
1033.52466	5.98864E-09
1033.66284	5.98939E-09
1033.80115	5.99022E-09
1033.93945	5.99112E-09
1034.07776	5.99210E-09
1034.21606	5.99316E-09
1034.35437	5.99431E-09
1034.49268	5.99556E-09
1034.63098	5.99689E-09
1034.76929	5.99833E-09
1034.90759	5.99986E-09
1035.04590	6.00148E-09
1035.18420	6.00320E-09
1035.32251	6.00502E-09
1035.46082	6.00694E-09
1035.59912	6.00895E-09
1035.73743	6.01107E-09
1035.87573	6.01329E-09
1036.01404	6.01559E-09
1036.15234	6.01800E-09
1036.29065	6.02049E-09
1036.42896	6.02307E-09
1036.56726	6.02574E-09
1036.70557	6.02848E-09
1036.84387	6.03131E-09
1036.98218	6.03420E-09
1037.12048	6.03717E-09
1037.25879	6.04019E-09
1037.39697	6.04329E-09
1037.53528	6.04643E-09
1037.67358	6.04962E-09
1037.81189	6.05286E-09
1037.95020	6.05612E-09
1038.08850	6.05942E-09
1038.22681	6.06275E-09
1038.36511	6.06610E-09
1038.50342	6.06945E-09
1038.64172	6.07280E-09
1038.78003	6.07615E-09
1038.91834	6.07950E-09
1039.05664	6.08282E-09
1039.19495	6.08612E-09
1039.33325	6.08939E-09
1039.47156	6.09261E-09
1039.60986	6.09579E-09
1039.74817	6.09892E-09
1039.88648	6.10198E-09
1040.02478	6.10498E-09
1040.16309	6.10790E-09
1040.30139	6.11075E-09
1040.43970	6.11350E-09
1040.57800	6.11616E-09
1040.71631	6.11872E-09
1040.85461	6.12116E-09
1040.99292	6.12351E-09
1041.13110	6.12575E-09
1041.26941	6.12785E-09
1041.40772	6.12985E-09
1041.54602	6.13170E-09
1041.68433	6.13343E-09
1041.82263	6.13502E-09
1041.96094	6.13648E-09
1042.09924	6.13780E-09
1042.23755	6.13897E-09
1042.37585	6.14000E-09
1042.51416	6.14089E-09
1042.65247	6.14164E-09
1042.79077	6.14224E-09
1042.92908	6.14269E-09
1043.06738	6.14300E-09
1043.20569	6.14318E-09
1043.34399	6.14321E-09
1043.48230	6.14311E-09
1043.62061	6.14286E-09
1043.75891	6.14250E-09
1043.89722	6.14200E-09
1044.03552	6.14137E-09
1044.17383	6.14063E-09
1044.31213	6.13978E-09
1044.45044	6.13882E-09
1044.58875	6.13774E-09
1044.72705	6.13659E-09
1044.86523	6.13533E-09
1045.00354	6.13399E-09
1045.14185	6.13258E-09
1045.28015	6.13110E-09
1045.41846	6.12955E-09
1045.55676	6.12796E-09
1045.69507	6.12632E-09
1045.83337	6.12464E-09
1045.97168	6.12293E-09
1046.10999	6.12119E-09
1046.24829	6.11945E-09
1046.38660	6.11770E-09
1046.52490	6.11596E-09
1046.66321	6.11423E-09
1046.80151	6.11252E-09
1046.93982	6.11084E-09
1047.07813	6.10920E-09
1047.21643	6.10761E-09
1047.35474	6.10608E-09
1047.49304	6.10460E-09
1047.63135	6.10320E-09
1047.76965	6.10188E-09
1047.90796	6.10064E-09
1048.04627	6.09950E-09
1048.18457	6.09846E-09
1048.32288	6.09754E-09
1048.46118	6.09673E-09
1048.59937	6.09604E-09
1048.73767	6.09548E-09
1048.87598	6.09505E-09
1049.01428	6.09476E-09
1049.15259	6.09461E-09
1049.29089	6.09460E-09
1049.42920	6.09475E-09
1049.56751	6.09505E-09
1049.70581	6.09551E-09
1049.84412	6.09613E-09
1049.98242	6.09691E-09
1050.12073	6.09786E-09
1050.25903	6.09897E-09
1050.39734	6.10026E-09
1050.53565	6.10170E-09
1050.67395	6.10331E-09
1050.81226	6.10508E-09
1050.95056	6.10702E-09
1051.08887	6.10913E-09
1051.22717	6.11139E-09
1051.36548	6.11381E-09
1051.50378	6.11637E-09
1051.64209	6.11910E-09
1051.78040	6.12196E-09
1051.91870	6.12497E-09
1052.05701	6.12812E-09
1052.19531	6.13140E-09
1052.33350	6.13481E-09
1052.47180	6.13834E-09
1052.61011	6.14199E-09
1052.74841	6.14575E-09
1052.88672	6.14961E-09
1053.02502	6.15356E-09
1053.16333	6.15759E-09
1053.30164	6.16171E-09
1053.43994	6.16590E-09
1053.57825	6.17014E-09
1053.71655	6.17444E-09
1053.85486	6.17879E-09
1053.99316	6.18318E-09
1054.13147	6.18758E-09
1054.26978	6.19201E-09
1054.40808	6.19646E-09
1054.54639	6.20090E-09
1054.68469	6.20533E-09
1054.82300	6.20975E-09
1054.96130	6.21412E-09
1055.09961	6.21848E-09
1055.23792	6.22279E-09
1055.37622	6.22704E-09
1055.51453	6.23123E-09
1055.65283	6.23536E-09
1055.79114	6.23941E-09
1055.92944	6.24338E-09
1056.06763	6.24725E-09
1056.20593	6.25101E-09
1056.34424	6.25467E-09
1056.48254	6.25822E-09
1056.62085	6.26164E-09
1056.75916	6.26495E-09
1056.89746	6.26813E-09
1057.03577	6.27117E-09
1057.17407	6.27407E-09
1057.31238	6.27684E-09
1057.45068	6.27946E-09
1057.58899	6.28193E-09
1057.72730	6.28425E-09
1057.86560	6.28641E-09
1058.00391	6.28841E-09
1058.14221	6.29027E-09
1058.28052	6.29196E-09
1058.41882	6.29350E-09
1058.55713	6.29489E-09
1058.69544	6.29614E-09
1058.83374	6.29724E-09
1058.97205	6.29819E-09
1059.11035	6.29900E-09
1059.24866	6.29966E-09
1059.38696	6.30020E-09
1059.52527	6.30059E-09
1059.66357	6.30088E-09
1059.80188	6.30104E-09
1059.94006	6.30109E-09
1060.07837	6.30103E-09
1060.21668	6.30088E-09
1060.35498	6.30064E-09
1060.49329	6.30032E-09
1060.63159	6.29992E-09
1060.76990	6.29946E-09
1060.90820	6.29895E-09
1061.04651	6.29838E-09
1061.18481	6.29778E-09
1061.32312	6.29716E-09
1061.46143	6.29652E-09
1061.59973	6.29588E-09
1061.73804	6.29523E-09
1061.87634	6.29460E-09
1062.01465	6.29400E-09
1062.15295	6.29343E-09
1062.29126	6.29291E-09
1062.42957	6.29245E-09
1062.56787	6.29206E-09
1062.70618	6.29174E-09
1062.84448	6.29151E-09
1062.98279	6.29137E-09
1063.12109	6.29134E-09
1063.25940	6.29143E-09
1063.39771	6.29162E-09
1063.53601	6.29196E-09
1063.67419	6.29245E-09
1063.81250	6.29308E-09
1063.95081	6.29386E-09
1064.08911	6.29480E-09
1064.22742	6.29592E-09
1064.36572	6.29722E-09
1064.50403	6.29869E-09
1064.64233	6.30035E-09
1064.78064	6.30219E-09
1064.91895	6.30423E-09
1065.05725	6.30648E-09
1065.19556	6.30892E-09
1065.33386	6.31156E-09
1065.47217	6.31441E-09
1065.61047	6.31747E-09
1065.74878	6.32073E-09
1065.88709	6.32420E-09
1066.02539	6.32788E-09
1066.16370	6.33176E-09
1066.30200	6.33585E-09
1066.44031	6.34013E-09
1066.57861	6.34461E-09
1066.71692	6.34928E-09
1066.85523	6.35415E-09
1066.99353	6.35920E-09
1067.13184	6.36443E-09
1067.27014	6.36983E-09
1067.40833	6.37539E-09
1067.54663	6.38112E-09
1067.68494	6.38700E-09
1067.82324	6.39302E-09
1067.96155	6.39918E-09
1068.09985	6.40548E-09
1068.23816	6.41189E-09
1068.37647	6.41842E-09
1068.51477	6.42505E-09
1068.65308	6.43177E-09
1068.79138	6.43857E-09
1068.92969	6.44546E-09
1069.06799	6.45240E-09
1069.20630	6.45940E-09
1069.34460	6.46643E-09
1069.48291	6.47350E-09
1069.62122	6.48059E-09
1069.75952	6.48769E-09
1069.89783	6.49480E-09
1070.03613	6.50188E-09
1070.17444	6.50893E-09
1070.31274	6.51595E-09
1070.45105	6.52293E-09
1070.58936	6.52985E-09
1070.72766	6.53670E-09
1070.86597	6.54348E-09
1071.00427	6.55017E-09
1071.14246	6.55676E-09
1071.28076	6.56323E-09
1071.41907	6.56959E-09
1071.55737	6.57581E-09
1071.69568	6.58192E-09
1071.83398	6.58787E-09
1071.97229	6.59367E-09
1072.11060	6.59932E-09
1072.24890	6.60480E-09
1072.38721	6.61010E-09
1072.52551	6.61522E-09
1072.66382	6.62017E-09
1072.80212	6.62492E-09
1072.94043	6.62948E-09
1073.07874	6.63385E-09
1073.21704	6.63801E-09
1073.35535	6.64198E-09
1073.49365	6.64574E-09
1073.63196	6.64930E-09
1073.77026	6.65266E-09
1073.90857	6.65582E-09
1074.04688	6.65877E-09
1074.18518	6.66154E-09
1074.32349	6.66409E-09
1074.46179	6.66647E-09
1074.60010	6.66864E-09
1074.73840	6.67064E-09
1074.87659	6.67246E-09
1075.01489	6.67411E-09
1075.15320	6.67559E-09
1075.29150	6.67692E-09
1075.42981	6.67810E-09
1075.56812	6.67914E-09
1075.70642	6.68005E-09
1075.84473	6.68084E-09
1075.98303	6.68152E-09
1076.12134	6.68211E-09
1076.25964	6.68262E-09
1076.39795	6.68305E-09
1076.53626	6.68342E-09
1076.67456	6.68376E-09
1076.81287	6.68405E-09
1076.95117	6.68433E-09
1077.08948	6.68460E-09
1077.22778	6.68488E-09
1077.36609	6.68517E-09
1077.50440	6.68551E-09
1077.64270	6.68591E-09
1077.78101	6.68637E-09
1077.91931	6.68691E-09
1078.05762	6.68754E-09
1078.19592	6.68830E-09
1078.33423	6.68918E-09
1078.47253	6.69018E-09
1078.61072	6.69135E-09
1078.74902	6.69268E-09
1078.88733	6.69419E-09
1079.02564	6.69589E-09
1079.16394	6.69779E-09
1079.30225	6.69991E-09
1079.44055	6.70226E-09
1079.57886	6.70485E-09
1079.71716	6.70768E-09
1079.85547	6.71077E-09
1079.99377	6.71413E-09
1080.13208	6.71777E-09
1080.27039	6.72169E-09
1080.40869	6.72589E-09
1080.54700	6.73041E-09
1080.68530	6.73522E-09
1080.82361	6.74034E-09
1080.96191	6.74579E-09
1081.10022	6.75156E-09
1081.23853	6.75765E-09
1081.37683	6.76407E-09
1081.51514	6.77079E-09
1081.65344	6.77786E-09
1081.79175	6.78525E-09
1081.93005	6.79293E-09
1082.06836	6.80094E-09
1082.20667	6.80927E-09
1082.34485	6.81791E-09
1082.48315	6.82684E-09
1082.62146	6.83607E-09
1082.75977	6.84559E-09
1082.89807	6.85537E-09
1083.03638	6.86544E-09
1083.17468	6.87577E-09
1083.31299	6.88636E-09
1083.45129	6.89717E-09
1083.58960	6.90822E-09
1083.72791	6.91949E-09
1083.86621	6.93097E-09
1084.00452	6.94262E-09
1084.14282	6.95445E-09
1084.28113	6.96644E-09
1084.41943	6.97857E-09
1084.55774	6.99082E-09
1084.69605	7.00320E-09
1084.83435	7.01563E-09
1084.97266	7.02817E-09
1085.11096	7.04074E-09
1085.24927	7.05336E-09
1085.38757	7.06599E-09
1085.52588	7.07860E-09
1085.66419	7.09119E-09
1085.80249	7.10374E-09
1085.94080	7.11623E-09
1086.07898	7.12863E-09
1086.21729	7.14092E-09
1086.35559	7.15309E-09
1086.49390	7.16512E-09
1086.63220	7.17696E-09
1086.77051	7.18863E-09
1086.90881	7.20011E-09
1087.04712	7.21132E-09
1087.18543	7.22231E-09
1087.32373	7.23305E-09
1087.46204	7.24348E-09
1087.60034	7.25364E-09
1087.73865	7.26346E-09
1087.87695	7.27294E-09
1088.01526	7.28209E-09
1088.15356	7.29089E-09
1088.29187	7.29931E-09
1088.43018	7.30736E-09
1088.56848	7.31500E-09
1088.70679	7.32225E-09
1088.84509	7.32908E-09
1088.98340	7.33548E-09
1089.12170	7.34146E-09
1089.26001	7.34701E-09
1089.39832	7.35214E-09
1089.53662	7.35684E-09
1089.67493	7.36111E-09
1089.81323	7.36495E-09
1089.95142	7.36834E-09
1090.08972	7.37133E-09
1090.22803	7.37390E-09
1090.36633	7.37605E-09
1090.50464	7.37781E-09
1090.64294	7.37920E-09
1090.78125	7.38018E-09
1090.91956	7.38081E-09
1091.05786	7.38110E-09
1091.19617	7.38106E-09
1091.33447	7.38069E-09
1091.47278	7.38004E-09
1091.61108	7.37911E-09
1091.74939	7.37793E-09
1091.88770	7.37652E-09
1092.02600	7.37490E-09
1092.16431	7.37311E-09
1092.30261	7.37114E-09
1092.44092	7.36904E-09
1092.57922	7.36685E-09
1092.71753	7.36457E-09
1092.85584	7.36225E-09
1092.99414	7.35990E-09
1093.13245	7.35757E-09
1093.27075	7.35526E-09
1093.40906	7.35301E-09
1093.54736	7.35084E-09
1093.68555	7.34878E-09
1093.82385	7.34686E-09
1093.96216	7.34512E-09
1094.10046	7.34357E-09
1094.23877	7.34223E-09
1094.37708	7.34111E-09
1094.51538	7.34030E-09
1094.65369	7.33976E-09
1094.79199	7.33951E-09
1094.93030	7.33962E-09
1095.06860	7.34008E-09
1095.20691	7.34090E-09
1095.34522	7.34212E-09
1095.48352	7.34375E-09
1095.62183	7.34579E-09
1095.76013	7.34827E-09
1095.89844	7.35119E-09
1096.03674	7.35458E-09
1096.17505	7.35844E-09
1096.31335	7.36278E-09
1096.45166	7.36761E-09
1096.58997	7.37292E-09
1096.72827	7.37873E-09
1096.86658	7.38504E-09
1097.00488	7.39184E-09
1097.14319	7.39913E-09
1097.28149	7.40692E-09
1097.41968	7.41520E-09
1097.55798	7.42396E-09
1097.69629	7.43319E-09
1097.83460	7.44290E-09
1097.97290	7.45306E-09
1098.11121	7.46367E-09
1098.24951	7.47471E-09
1098.38782	7.48616E-09
1098.52612	7.49802E-09
1098.66443	7.51026E-09
1098.80273	7.52286E-09
1098.94104	7.53582E-09
1099.07935	7.54908E-09
1099.21765	7.56264E-09
1099.35596	7.57648E-09
1099.49426	7.59058E-09
1099.63257	7.60489E-09
1099.77087	7.61939E-09
1099.90918	7.63407E-09
1100.04749	7.64888E-09
1100.18579	7.66381E-09
1100.32410	7.67882E-09
1100.46240	7.69388E-09
1100.60071	7.70896E-09
1100.73901	7.72402E-09
1100.87732	7.73905E-09
1101.01563	7.75400E-09
1101.15381	7.76884E-09
1101.29211	7.78354E-09
1101.43042	7.79807E-09
1101.56873	7.81240E-09
1101.70703	7.82651E-09
1101.84534	7.84035E-09
1101.98364	7.85390E-09
1102.12195	7.86714E-09
1102.26025	7.88003E-09
1102.39856	7.89255E-09
1102.53687	7.90467E-09
1102.67517	7.91636E-09
1102.81348	7.92762E-09
1102.95178	7.93841E-09
1103.09009	7.94873E-09
1103.22839	7.95853E-09
1103.36670	7.96782E-09
1103.50501	7.97656E-09
1103.64331	7.98477E-09
1103.78162	7.99241E-09
1103.91992	7.99950E-09
1104.05823	8.00602E-09
1104.19653	8.01196E-09
1104.33484	8.01734E-09
1104.47315	8.02214E-09
1104.61145	8.02640E-09
1104.74976	8.03010E-09
1104.88794	8.03325E-09
1105.02625	8.03587E-09
1105.16455	8.03797E-09
1105.30286	8.03956E-09
1105.44116	8.04067E-09
1105.57947	8.04132E-09
1105.71777	8.04154E-09
1105.85608	8.04136E-09
1105.99439	8.04080E-09
1106.13269	8.03991E-09
1106.27100	8.03871E-09
1106.40930	8.03723E-09
1106.54761	8.03554E-09
1106.68591	8.03366E-09
1106.82422	8.03164E-09
1106.96252	8.02952E-09
1107.10083	8.02735E-09
1107.23914	8.02519E-09
1107.37744	8.02308E-09
1107.51575	8.02106E-09
1107.65405	8.01920E-09
1107.79236	8.01755E-09
1107.93066	8.01615E-09
1108.06897	8.01507E-09
1108.20728	8.01435E-09
1108.34558	8.01406E-09
1108.48389	8.01424E-09
1108.62207	8.01495E-09
1108.76038	8.01624E-09
1108.89868	8.01816E-09
1109.03699	8.02077E-09
1109.17529	8.02410E-09
1109.31360	8.02824E-09
1109.45190	8.03319E-09
1109.59021	8.03903E-09
1109.72852	8.04579E-09
1109.86682	8.05352E-09
1110.00513	8.06225E-09
1110.14343	8.07204E-09
1110.28174	8.08291E-09
1110.42004	8.09490E-09
1110.55835	8.10806E-09
1110.69666	8.12241E-09
1110.83496	8.13798E-09
1110.97327	8.15479E-09
1111.11157	8.17289E-09
1111.24988	8.19228E-09
1111.38818	8.21299E-09
1111.52649	8.23504E-09
1111.66480	8.25845E-09
1111.80310	8.28322E-09
1111.94141	8.30935E-09
1112.07971	8.33689E-09
1112.21802	8.36580E-09
1112.35620	8.39611E-09
1112.49451	8.42782E-09
1112.63281	8.46092E-09
1112.77112	8.49540E-09
1112.90942	8.53126E-09
1113.04773	8.56849E-09
1113.18604	8.60708E-09
1113.32434	8.64702E-09
1113.46265	8.68828E-09
1113.60095	8.73084E-09
1113.73926	8.77469E-09
1113.87756	8.81981E-09
1114.01587	8.86613E-09
1114.15418	8.91367E-09
1114.29248	8.96238E-09
1114.43079	9.01222E-09
1114.56909	9.06314E-09
1114.70740	9.11514E-09
1114.84570	9.16815E-09
1114.98401	9.22213E-09
1115.12231	9.27703E-09
1115.26062	9.33281E-09
1115.39893	9.38941E-09
1115.53723	9.44679E-09
1115.67554	9.50488E-09
1115.81384	9.56362E-09
1115.95215	9.62294E-09
1116.09033	9.68279E-09
1116.22864	9.74312E-09
1116.36694	9.80384E-09
1116.50525	9.86488E-09
1116.64356	9.92617E-09
1116.78186	9.98762E-09
1116.92017	1.00492E-08
1117.05847	1.01107E-08
1117.19678	1.01721E-08
1117.33508	1.02334E-08
1117.47339	1.02943E-08
1117.61169	1.03549E-08
1117.75000	1.04150E-08
1117.88831	1.04746E-08
1118.02661	1.05334E-08
1118.16492	1.05914E-08
1118.30322	1.06485E-08
1118.44153	1.07046E-08
1118.57983	1.07596E-08
1118.71814	1.08133E-08
1118.85645	1.08656E-08
1118.99475	1.09165E-08
1119.13306	1.09658E-08
1119.27136	1.10134E-08
1119.40967	1.10593E-08
1119.54797	1.11034E-08
1119.68628	1.11455E-08
1119.82459	1.11855E-08
1119.96277	1.12235E-08
1120.10107	1.12594E-08
1120.23938	1.12931E-08
1120.37769	1.13246E-08
1120.51599	1.13538E-08
1120.65430	1.13809E-08
1120.79260	1.14057E-08
1120.93091	1.14283E-08
1121.06921	1.14487E-08
1121.20752	1.14670E-08
1121.34583	1.14832E-08
1121.48413	1.14975E-08
1121.62244	1.15099E-08
1121.76074	1.15205E-08
1121.89905	1.15294E-08
1122.03735	1.15368E-08
1122.17566	1.15427E-08
1122.31397	1.15474E-08
1122.45227	1.15510E-08
1122.59058	1.15536E-08
1122.72888	1.15555E-08
1122.86719	1.15567E-08
1123.00549	1.15575E-08
1123.14380	1.15581E-08
1123.28210	1.15585E-08
1123.42041	1.15591E-08
1123.55872	1.15600E-08
1123.69690	1.15613E-08
1123.83521	1.15633E-08
1123.97351	1.15661E-08
1124.11182	1.15700E-08
1124.25012	1.15750E-08
1124.38843	1.15815E-08
1124.52673	1.15895E-08
1124.66504	1.15992E-08
1124.80335	1.16109E-08
1124.94165	1.16246E-08
1125.07996	1.16405E-08
1125.21826	1.16588E-08
1125.35657	1.16797E-08
1125.49487	1.17032E-08
1125.63318	1.17297E-08
1125.77148	1.17592E-08
1125.90979	1.17918E-08
1126.04810	1.18278E-08
1126.18640	1.18673E-08
1126.32471	1.19105E-08
1126.46301	1.19575E-08
1126.60132	1.20084E-08
1126.73962	1.20635E-08
1126.87793	1.21228E-08
1127.01624	1.21867E-08
1127.15454	1.22552E-08
1127.29285	1.23285E-08
1127.43103	1.24068E-08
1127.56934	1.24904E-08
1127.70764	1.25794E-08
1127.84595	1.26742E-08
1127.98425	1.27749E-08
1128.12256	1.28820E-08
1128.26086	1.29957E-08
1128.39917	1.31165E-08
1128.53748	1.32447E-08
1128.67578	1.33809E-08
1128.81409	1.35256E-08
1128.95239	1.36796E-08
1129.09070	1.38437E-08
1129.22900	1.40189E-08
1129.36731	1.42063E-08
1129.50562	1.44075E-08
1129.64392	1.46244E-08
1129.78223	1.48591E-08
1129.92053	1.51145E-08
1130.05884	1.53943E-08
1130.19714	1.57034E-08
1130.33545	1.60481E-08
1130.47376	1.64369E-08
1130.61206	1.68816E-08
1130.75037	1.73988E-08
1130.88867	1.80124E-08
1131.02698	1.87588E-08
1131.16516	1.96950E-08
1131.30347	2.09165E-08
1131.44177	2.25950E-08
1131.58008	2.50737E-08
1131.71838	2.91477E-08
1131.85669	3.71679E-08
1131.99500	6.03989E-08
1132.13330	8.82521E-07
1132.27161	-4.20720E-08
1132.40991	-1.47047E-08
1132.54822	-6.49170E-09
1132.68652	-3.17897E-09
1132.82483	-2.24095E-09