Wavenumber	NESR 6.60 cm-1
566.48157	8.64758E-08
566.61987	8.55644E-08
566.75818	8.41490E-08
566.89648	8.23507E-08
567.03479	8.02952E-08
567.17310	7.80949E-08
567.31140	7.58376E-08
567.44965	7.35860E-08
567.58795	7.13809E-08
567.72626	6.92470E-08
567.86456	6.71963E-08
568.00287	6.52340E-08
568.14117	6.33603E-08
568.27948	6.15727E-08
568.41779	5.98669E-08
568.55609	5.82387E-08
568.69440	5.66831E-08
568.83270	5.51956E-08
568.97101	5.37716E-08
569.10931	5.24071E-08
569.24762	5.10982E-08
569.38586	4.98415E-08
569.52417	4.86336E-08
569.66248	4.74719E-08
569.80078	4.63536E-08
569.93909	4.52760E-08
570.07739	4.42372E-08
570.21570	4.32348E-08
570.35400	4.22671E-08
570.49231	4.13322E-08
570.63062	4.04284E-08
570.76892	3.95543E-08
570.90723	3.87084E-08
571.04553	3.78894E-08
571.18378	3.70961E-08
571.32208	3.63274E-08
571.46039	3.55822E-08
571.59869	3.48595E-08
571.73700	3.41584E-08
571.87531	3.34780E-08
572.01361	3.28175E-08
572.15192	3.21761E-08
572.29022	3.15530E-08
572.42853	3.09477E-08
572.56683	3.03594E-08
572.70514	2.97876E-08
572.84345	2.92316E-08
572.98175	2.86909E-08
573.12000	2.81650E-08
573.25830	2.76534E-08
573.39661	2.71556E-08
573.53491	2.66712E-08
573.67322	2.61997E-08
573.81152	2.57408E-08
573.94983	2.52940E-08
574.08814	2.48590E-08
574.22644	2.44353E-08
574.36475	2.40227E-08
574.50305	2.36209E-08
574.64136	2.32294E-08
574.77966	2.28480E-08
574.91797	2.24764E-08
575.05621	2.21143E-08
575.19452	2.17614E-08
575.33283	2.14174E-08
575.47113	2.10821E-08
575.60944	2.07553E-08
575.74774	2.04366E-08
575.88605	2.01259E-08
576.02435	1.98229E-08
576.16266	1.95274E-08
576.30096	1.92392E-08
576.43927	1.89581E-08
576.57758	1.86839E-08
576.71588	1.84163E-08
576.85413	1.81552E-08
576.99243	1.79005E-08
577.13074	1.76518E-08
577.26904	1.74091E-08
577.40735	1.71722E-08
577.54565	1.69409E-08
577.68396	1.67151E-08
577.82227	1.64945E-08
577.96057	1.62791E-08
578.09888	1.60687E-08
578.23718	1.58632E-08
578.37549	1.56624E-08
578.51379	1.54662E-08
578.65210	1.52744E-08
578.79034	1.50870E-08
578.92865	1.49037E-08
579.06696	1.47246E-08
579.20526	1.45494E-08
579.34357	1.43780E-08
579.48187	1.42104E-08
579.62018	1.40464E-08
579.75848	1.38860E-08
579.89679	1.37290E-08
580.03510	1.35754E-08
580.17340	1.34250E-08
580.31171	1.32777E-08
580.45001	1.31335E-08
580.58826	1.29923E-08
580.72656	1.28540E-08
580.86487	1.27184E-08
581.00317	1.25856E-08
581.14148	1.24555E-08
581.27979	1.23279E-08
581.41809	1.22029E-08
581.55640	1.20802E-08
581.69470	1.19600E-08
581.83301	1.18420E-08
581.97131	1.17263E-08
582.10962	1.16128E-08
582.24793	1.15014E-08
582.38623	1.13920E-08
582.52448	1.12846E-08
582.66278	1.11792E-08
582.80109	1.10756E-08
582.93939	1.09739E-08
583.07770	1.08740E-08
583.21600	1.07759E-08
583.35431	1.06794E-08
583.49262	1.05846E-08
583.63092	1.04914E-08
583.76923	1.03998E-08
583.90753	1.03097E-08
584.04584	1.02211E-08
584.18414	1.01339E-08
584.32239	1.00481E-08
584.46069	9.96377E-09
584.59900	9.88073E-09
584.73731	9.79901E-09
584.87561	9.71858E-09
585.01392	9.63939E-09
585.15222	9.56142E-09
585.29053	9.48465E-09
585.42883	9.40905E-09
585.56714	9.33458E-09
585.70544	9.26121E-09
585.84375	9.18892E-09
585.98206	9.11769E-09
586.12036	9.04752E-09
586.25861	8.97834E-09
586.39691	8.91016E-09
586.53522	8.84295E-09
586.67352	8.77669E-09
586.81183	8.71137E-09
586.95013	8.64694E-09
587.08844	8.58342E-09
587.22675	8.52077E-09
587.36505	8.45899E-09
587.50336	8.39804E-09
587.64166	8.33793E-09
587.77997	8.27861E-09
587.91827	8.22010E-09
588.05652	8.16237E-09
588.19482	8.10540E-09
588.33313	8.04919E-09
588.47144	7.99372E-09
588.60974	7.93896E-09
588.74805	7.88494E-09
588.88635	7.83161E-09
589.02466	7.77897E-09
589.16296	7.72700E-09
589.30127	7.67572E-09
589.43958	7.62508E-09
589.57788	7.57511E-09
589.71619	7.52576E-09
589.85449	7.47704E-09
589.99274	7.42895E-09
590.13104	7.38146E-09
590.26935	7.33458E-09
590.40765	7.28829E-09
590.54596	7.24259E-09
590.68427	7.19746E-09
590.82257	7.15288E-09
590.96088	7.10887E-09
591.09918	7.06541E-09
591.23749	7.02250E-09
591.37579	6.98011E-09
591.51410	6.93825E-09
591.65241	6.89693E-09
591.79071	6.85611E-09
591.92896	6.81581E-09
592.06726	6.77600E-09
592.20557	6.73669E-09
592.34387	6.69787E-09
592.48218	6.65953E-09
592.62048	6.62165E-09
592.75879	6.58425E-09
592.89710	6.54732E-09
593.03540	6.51085E-09
593.17371	6.47484E-09
593.31201	6.43928E-09
593.45032	6.40415E-09
593.58862	6.36947E-09
593.72687	6.33521E-09
593.86517	6.30138E-09
594.00348	6.26797E-09
594.14179	6.23497E-09
594.28009	6.20238E-09
594.41840	6.17019E-09
594.55670	6.13841E-09
594.69501	6.10702E-09
594.83331	6.07601E-09
594.97162	6.04541E-09
595.10992	6.01516E-09
595.24823	5.98532E-09
595.38654	5.95584E-09
595.52484	5.92674E-09
595.66309	5.89800E-09
595.80139	5.86963E-09
595.93970	5.84161E-09
596.07800	5.81395E-09
596.21631	5.78663E-09
596.35461	5.75966E-09
596.49292	5.73304E-09
596.63123	5.70676E-09
596.76953	5.68081E-09
596.90784	5.65519E-09
597.04614	5.62990E-09
597.18445	5.60495E-09
597.32275	5.58032E-09
597.46100	5.55600E-09
597.59930	5.53201E-09
597.73761	5.50833E-09
597.87592	5.48496E-09
598.01422	5.46191E-09
598.15253	5.43916E-09
598.29083	5.41671E-09
598.42914	5.39457E-09
598.56744	5.37272E-09
598.70575	5.35117E-09
598.84406	5.32992E-09
598.98236	5.30895E-09
599.12067	5.28829E-09
599.25897	5.26790E-09
599.39722	5.24780E-09
599.53552	5.22797E-09
599.67383	5.20844E-09
599.81213	5.18918E-09
599.95044	5.17020E-09
600.08875	5.15148E-09
600.22705	5.13305E-09
600.36536	5.11488E-09
600.50366	5.09698E-09
600.64197	5.07935E-09
600.78027	5.06198E-09
600.91858	5.04487E-09
601.05689	5.02803E-09
601.19513	5.01144E-09
601.33344	4.99512E-09
601.47174	4.97905E-09
601.61005	4.96323E-09
601.74835	4.94767E-09
601.88666	4.93236E-09
602.02496	4.91730E-09
602.16327	4.90248E-09
602.30158	4.88792E-09
602.43988	4.87359E-09
602.57819	4.85951E-09
602.71649	4.84567E-09
602.85480	4.83206E-09
602.99310	4.81869E-09
603.13135	4.80556E-09
603.26965	4.79266E-09
603.40796	4.77999E-09
603.54627	4.76755E-09
603.68457	4.75534E-09
603.82288	4.74335E-09
603.96118	4.73159E-09
604.09949	4.72006E-09
604.23779	4.70874E-09
604.37610	4.69764E-09
604.51440	4.68675E-09
604.65271	4.67608E-09
604.79102	4.66562E-09
604.92932	4.65537E-09
605.06757	4.64532E-09
605.20587	4.63548E-09
605.34418	4.62585E-09
605.48248	4.61641E-09
605.62079	4.60718E-09
605.75909	4.59814E-09
605.89740	4.58930E-09
606.03571	4.58064E-09
606.17401	4.57217E-09
606.31232	4.56388E-09
606.45062	4.55578E-09
606.58893	4.54786E-09
606.72723	4.54011E-09
606.86548	4.53255E-09
607.00378	4.52515E-09
607.14209	4.51792E-09
607.28040	4.51086E-09
607.41870	4.50396E-09
607.55701	4.49722E-09
607.69531	4.49065E-09
607.83362	4.48422E-09
607.97192	4.47795E-09
608.11023	4.47183E-09
608.24854	4.46586E-09
608.38684	4.46002E-09
608.52515	4.45433E-09
608.66345	4.44878E-09
608.80170	4.44336E-09
608.94000	4.43807E-09
609.07831	4.43291E-09
609.21661	4.42787E-09
609.35492	4.42296E-09
609.49323	4.41816E-09
609.63153	4.41349E-09
609.76984	4.40892E-09
609.90814	4.40447E-09
610.04645	4.40013E-09
610.18475	4.39588E-09
610.32306	4.39175E-09
610.46137	4.38771E-09
610.59961	4.38377E-09
610.73792	4.37992E-09
610.87622	4.37616E-09
611.01453	4.37248E-09
611.15283	4.36890E-09
611.29114	4.36539E-09
611.42944	4.36197E-09
611.56775	4.35863E-09
611.70606	4.35536E-09
611.84436	4.35216E-09
611.98267	4.34904E-09
612.12097	4.34598E-09
612.25928	4.34299E-09
612.39758	4.34007E-09
612.53583	4.33720E-09
612.67413	4.33440E-09
612.81244	4.33166E-09
612.95075	4.32898E-09
613.08905	4.32635E-09
613.22736	4.32378E-09
613.36566	4.32126E-09
613.50397	4.31879E-09
613.64227	4.31638E-09
613.78058	4.31401E-09
613.91888	4.31169E-09
614.05719	4.30942E-09
614.19550	4.30718E-09
614.33374	4.30501E-09
614.47205	4.30287E-09
614.61035	4.30078E-09
614.74866	4.29873E-09
614.88696	4.29673E-09
615.02527	4.29477E-09
615.16357	4.29285E-09
615.30188	4.29097E-09
615.44019	4.28914E-09
615.57849	4.28735E-09
615.71680	4.28560E-09
615.85510	4.28389E-09
615.99341	4.28223E-09
616.13171	4.28062E-09
616.26996	4.27904E-09
616.40826	4.27752E-09
616.54657	4.27603E-09
616.68488	4.27460E-09
616.82318	4.27321E-09
616.96149	4.27187E-09
617.09979	4.27058E-09
617.23810	4.26934E-09
617.37640	4.26815E-09
617.51471	4.26701E-09
617.65302	4.26592E-09
617.79132	4.26489E-09
617.92963	4.26391E-09
618.06787	4.26298E-09
618.20618	4.26211E-09
618.34448	4.26129E-09
618.48279	4.26055E-09
618.62109	4.25986E-09
618.75940	4.25924E-09
618.89771	4.25867E-09
619.03601	4.25817E-09
619.17432	4.25773E-09
619.31262	4.25736E-09
619.45093	4.25705E-09
619.58923	4.25681E-09
619.72754	4.25664E-09
619.86585	4.25653E-09
620.00409	4.25649E-09
620.14240	4.25653E-09
620.28070	4.25663E-09
620.41901	4.25681E-09
620.55731	4.25705E-09
620.69562	4.25737E-09
620.83392	4.25776E-09
620.97223	4.25823E-09
621.11054	4.25876E-09
621.24884	4.25938E-09
621.38715	4.26006E-09
621.52545	4.26082E-09
621.66376	4.26166E-09
621.80206	4.26257E-09
621.94031	4.26355E-09
622.07861	4.26461E-09
622.21692	4.26575E-09
622.35523	4.26695E-09
622.49353	4.26823E-09
622.63184	4.26957E-09
622.77014	4.27099E-09
622.90845	4.27248E-09
623.04675	4.27404E-09
623.18506	4.27567E-09
623.32336	4.27737E-09
623.46167	4.27913E-09
623.59998	4.28095E-09
623.73822	4.28284E-09
623.87653	4.28480E-09
624.01483	4.28681E-09
624.15314	4.28888E-09
624.29144	4.29101E-09
624.42975	4.29319E-09
624.56805	4.29543E-09
624.70636	4.29772E-09
624.84467	4.30006E-09
624.98297	4.30245E-09
625.12128	4.30489E-09
625.25958	4.30736E-09
625.39789	4.30988E-09
625.53619	4.31244E-09
625.67444	4.31503E-09
625.81274	4.31766E-09
625.95105	4.32032E-09
626.08936	4.32300E-09
626.22766	4.32571E-09
626.36597	4.32844E-09
626.50427	4.33120E-09
626.64258	4.33397E-09
626.78088	4.33675E-09
626.91919	4.33955E-09
627.05750	4.34235E-09
627.19580	4.34517E-09
627.33411	4.34798E-09
627.47235	4.35080E-09
627.61066	4.35362E-09
627.74896	4.35643E-09
627.88727	4.35924E-09
628.02557	4.36204E-09
628.16388	4.36483E-09
628.30219	4.36760E-09
628.44049	4.37036E-09
628.57880	4.37309E-09
628.71710	4.37581E-09
628.85541	4.37850E-09
628.99371	4.38117E-09
629.13202	4.38381E-09
629.27033	4.38641E-09
629.40857	4.38899E-09
629.54688	4.39153E-09
629.68518	4.39403E-09
629.82349	4.39650E-09
629.96179	4.39893E-09
630.10010	4.40132E-09
630.23840	4.40366E-09
630.37671	4.40596E-09
630.51502	4.40821E-09
630.65332	4.41042E-09
630.79163	4.41258E-09
630.92993	4.41469E-09
631.06824	4.41675E-09
631.20648	4.41877E-09
631.34479	4.42074E-09
631.48309	4.42266E-09
631.62140	4.42453E-09
631.75971	4.42635E-09
631.89801	4.42811E-09
632.03632	4.42983E-09
632.17462	4.43150E-09
632.31293	4.43313E-09
632.45123	4.43471E-09
632.58954	4.43624E-09
632.72784	4.43772E-09
632.86615	4.43916E-09
633.00446	4.44056E-09
633.14270	4.44191E-09
633.28101	4.44322E-09
633.41931	4.44449E-09
633.55762	4.44572E-09
633.69592	4.44692E-09
633.83423	4.44808E-09
633.97253	4.44921E-09
634.11084	4.45030E-09
634.24915	4.45136E-09
634.38745	4.45239E-09
634.52576	4.45340E-09
634.66406	4.45438E-09
634.80237	4.45534E-09
634.94067	4.45628E-09
635.07892	4.45720E-09
635.21722	4.45810E-09
635.35553	4.45900E-09
635.49384	4.45988E-09
635.63214	4.46075E-09
635.77045	4.46161E-09
635.90875	4.46246E-09
636.04706	4.46331E-09
636.18536	4.46417E-09
636.32367	4.46502E-09
636.46198	4.46587E-09
636.60028	4.46673E-09
636.73859	4.46760E-09
636.87683	4.46848E-09
637.01514	4.46937E-09
637.15344	4.47026E-09
637.29175	4.47117E-09
637.43005	4.47210E-09
637.56836	4.47305E-09
637.70667	4.47402E-09
637.84497	4.47500E-09
637.98328	4.47601E-09
638.12158	4.47705E-09
638.25989	4.47811E-09
638.39819	4.47919E-09
638.53650	4.48031E-09
638.67481	4.48146E-09
638.81305	4.48263E-09
638.95136	4.48384E-09
639.08966	4.48508E-09
639.22797	4.48635E-09
639.36627	4.48765E-09
639.50458	4.48899E-09
639.64288	4.49036E-09
639.78119	4.49177E-09
639.91950	4.49321E-09
640.05780	4.49468E-09
640.19611	4.49619E-09
640.33441	4.49773E-09
640.47272	4.49930E-09
640.61096	4.50091E-09
640.74927	4.50255E-09
640.88757	4.50422E-09
641.02588	4.50593E-09
641.16419	4.50767E-09
641.30249	4.50945E-09
641.44080	4.51125E-09
641.57910	4.51308E-09
641.71741	4.51494E-09
641.85571	4.51683E-09
641.99402	4.51874E-09
642.13232	4.52068E-09
642.27063	4.52264E-09
642.40894	4.52462E-09
642.54718	4.52662E-09
642.68549	4.52864E-09
642.82379	4.53068E-09
642.96210	4.53273E-09
643.10040	4.53480E-09
643.23871	4.53688E-09
643.37701	4.53898E-09
643.51532	4.54107E-09
643.65363	4.54318E-09
643.79193	4.54530E-09
643.93024	4.54742E-09
644.06854	4.54954E-09
644.20685	4.55166E-09
644.34509	4.55378E-09
644.48340	4.55590E-09
644.62170	4.55801E-09
644.76001	4.56012E-09
644.89832	4.56222E-09
645.03662	4.56431E-09
645.17493	4.56639E-09
645.31323	4.56846E-09
645.45154	4.57051E-09
645.58984	4.57254E-09
645.72815	4.57456E-09
645.86646	4.57656E-09
646.00476	4.57853E-09
646.14307	4.58048E-09
646.28131	4.58242E-09
646.41962	4.58432E-09
646.55792	4.58620E-09
646.69623	4.58805E-09
646.83453	4.58988E-09
646.97284	4.59168E-09
647.11115	4.59344E-09
647.24945	4.59517E-09
647.38776	4.59687E-09
647.52606	4.59854E-09
647.66437	4.60018E-09
647.80267	4.60178E-09
647.94098	4.60335E-09
648.07922	4.60488E-09
648.21753	4.60637E-09
648.35584	4.60783E-09
648.49414	4.60926E-09
648.63245	4.61065E-09
648.77075	4.61200E-09
648.90906	4.61331E-09
649.04736	4.61459E-09
649.18567	4.61583E-09
649.32398	4.61703E-09
649.46228	4.61819E-09
649.60059	4.61932E-09
649.73889	4.62041E-09
649.87720	4.62147E-09
650.01544	4.62250E-09
650.15375	4.62349E-09
650.29205	4.62444E-09
650.43036	4.62537E-09
650.56867	4.62625E-09
650.70697	4.62711E-09
650.84528	4.62793E-09
650.98358	4.62873E-09
651.12189	4.62948E-09
651.26019	4.63021E-09
651.39850	4.63091E-09
651.53680	4.63158E-09
651.67511	4.63222E-09
651.81342	4.63283E-09
651.95166	4.63342E-09
652.08997	4.63398E-09
652.22827	4.63451E-09
652.36658	4.63502E-09
652.50488	4.63550E-09
652.64319	4.63596E-09
652.78149	4.63639E-09
652.91980	4.63680E-09
653.05811	4.63718E-09
653.19641	4.63755E-09
653.33472	4.63789E-09
653.47302	4.63821E-09
653.61133	4.63851E-09
653.74957	4.63879E-09
653.88788	4.63905E-09
654.02618	4.63929E-09
654.16449	4.63951E-09
654.30280	4.63971E-09
654.44110	4.63988E-09
654.57941	4.64004E-09
654.71771	4.64017E-09
654.85602	4.64029E-09
654.99432	4.64038E-09
655.13263	4.64045E-09
655.27094	4.64050E-09
655.40924	4.64053E-09
655.54755	4.64054E-09
655.68579	4.64053E-09
655.82410	4.64050E-09
655.96240	4.64044E-09
656.10071	4.64036E-09
656.23901	4.64026E-09
656.37732	4.64013E-09
656.51563	4.63998E-09
656.65393	4.63981E-09
656.79224	4.63960E-09
656.93054	4.63938E-09
657.06885	4.63912E-09
657.20715	4.63884E-09
657.34546	4.63852E-09
657.48370	4.63818E-09
657.62201	4.63780E-09
657.76032	4.63740E-09
657.89862	4.63696E-09
658.03693	4.63649E-09
658.17523	4.63599E-09
658.31354	4.63545E-09
658.45184	4.63488E-09
658.59015	4.63426E-09
658.72846	4.63361E-09
658.86676	4.63292E-09
659.00507	4.63220E-09
659.14337	4.63144E-09
659.28168	4.63063E-09
659.41992	4.62979E-09
659.55823	4.62891E-09
659.69653	4.62799E-09
659.83484	4.62702E-09
659.97315	4.62601E-09
660.11145	4.62496E-09
660.24976	4.62386E-09
660.38806	4.62272E-09
660.52637	4.62153E-09
660.66467	4.62030E-09
660.80298	4.61903E-09
660.94128	4.61771E-09
661.07959	4.61635E-09
661.21783	4.61494E-09
661.35614	4.61348E-09
661.49445	4.61199E-09
661.63275	4.61044E-09
661.77106	4.60886E-09
661.90936	4.60723E-09
662.04767	4.60555E-09
662.18597	4.60384E-09
662.32428	4.60209E-09
662.46259	4.60029E-09
662.60089	4.59846E-09
662.73920	4.59659E-09
662.87750	4.59468E-09
663.01581	4.59273E-09
663.15405	4.59075E-09
663.29236	4.58873E-09
663.43066	4.58668E-09
663.56897	4.58459E-09
663.70728	4.58248E-09
663.84558	4.58033E-09
663.98389	4.57816E-09
664.12219	4.57596E-09
664.26050	4.57373E-09
664.39880	4.57148E-09
664.53711	4.56921E-09
664.67542	4.56692E-09
664.81372	4.56461E-09
664.95203	4.56228E-09
665.09027	4.55994E-09
665.22858	4.55758E-09
665.36688	4.55521E-09
665.50519	4.55284E-09
665.64349	4.55045E-09
665.78180	4.54805E-09
665.92011	4.54566E-09
666.05841	4.54326E-09
666.19672	4.54085E-09
666.33502	4.53845E-09
666.47333	4.53605E-09
666.61163	4.53366E-09
666.74994	4.53126E-09
666.88818	4.52888E-09
667.02649	4.52651E-09
667.16480	4.52415E-09
667.30310	4.52180E-09
667.44141	4.51946E-09
667.57971	4.51714E-09
667.71802	4.51483E-09
667.85632	4.51255E-09
667.99463	4.51028E-09
668.13294	4.50803E-09
668.27124	4.50581E-09
668.40955	4.50360E-09
668.54785	4.50143E-09
668.68616	4.49928E-09
668.82440	4.49716E-09
668.96271	4.49506E-09
669.10101	4.49299E-09
669.23932	4.49095E-09
669.37763	4.48894E-09
669.51593	4.48695E-09
669.65424	4.48500E-09
669.79254	4.48307E-09
669.93085	4.48118E-09
670.06915	4.47932E-09
670.20746	4.47749E-09
670.34576	4.47569E-09
670.48407	4.47392E-09
670.62231	4.47218E-09
670.76062	4.47047E-09
670.89893	4.46879E-09
671.03723	4.46715E-09
671.17554	4.46553E-09
671.31384	4.46394E-09
671.45215	4.46238E-09
671.59045	4.46085E-09
671.72876	4.45934E-09
671.86707	4.45786E-09
672.00537	4.45640E-09
672.14368	4.45497E-09
672.28198	4.45356E-09
672.42029	4.45217E-09
672.55853	4.45080E-09
672.69684	4.44945E-09
672.83514	4.44812E-09
672.97345	4.44681E-09
673.11176	4.44551E-09
673.25006	4.44423E-09
673.38837	4.44296E-09
673.52667	4.44170E-09
673.66498	4.44045E-09
673.80328	4.43921E-09
673.94159	4.43798E-09
674.07990	4.43675E-09
674.21820	4.43553E-09
674.35645	4.43431E-09
674.49475	4.43309E-09
674.63306	4.43187E-09
674.77136	4.43065E-09
674.90967	4.42943E-09
675.04797	4.42820E-09
675.18628	4.42696E-09
675.32459	4.42572E-09
675.46289	4.42447E-09
675.60120	4.42320E-09
675.73950	4.42192E-09
675.87781	4.42063E-09
676.01611	4.41932E-09
676.15442	4.41800E-09
676.29266	4.41665E-09
676.43097	4.41529E-09
676.56928	4.41391E-09
676.70758	4.41251E-09
676.84589	4.41109E-09
676.98419	4.40965E-09
677.12250	4.40818E-09
677.26080	4.40668E-09
677.39911	4.40516E-09
677.53742	4.40362E-09
677.67572	4.40205E-09
677.81403	4.40045E-09
677.95233	4.39882E-09
678.09058	4.39717E-09
678.22888	4.39549E-09
678.36719	4.39378E-09
678.50549	4.39203E-09
678.64380	4.39026E-09
678.78210	4.38847E-09
678.92041	4.38664E-09
679.05872	4.38479E-09
679.19702	4.38291E-09
679.33533	4.38100E-09
679.47363	4.37906E-09
679.61194	4.37710E-09
679.75024	4.37511E-09
679.88855	4.37310E-09
680.02679	4.37106E-09
680.16510	4.36899E-09
680.30341	4.36691E-09
680.44171	4.36480E-09
680.58002	4.36267E-09
680.71832	4.36052E-09
680.85663	4.35834E-09
680.99493	4.35615E-09
681.13324	4.35394E-09
681.27155	4.35172E-09
681.40985	4.34948E-09
681.54816	4.34722E-09
681.68646	4.34496E-09
681.82477	4.34268E-09
681.96301	4.34039E-09
682.10132	4.33809E-09
682.23962	4.33579E-09
682.37793	4.33347E-09
682.51624	4.33116E-09
682.65454	4.32884E-09
682.79285	4.32651E-09
682.93115	4.32419E-09
683.06946	4.32187E-09
683.20776	4.31955E-09
683.34607	4.31723E-09
683.48438	4.31492E-09
683.62268	4.31261E-09
683.76093	4.31031E-09
683.89923	4.30802E-09
684.03754	4.30574E-09
684.17584	4.30346E-09
684.31415	4.30120E-09
684.45245	4.29896E-09
684.59076	4.29672E-09
684.72907	4.29450E-09
684.86737	4.29230E-09
685.00568	4.29011E-09
685.14398	4.28794E-09
685.28229	4.28578E-09
685.42059	4.28364E-09
685.55890	4.28153E-09
685.69714	4.27944E-09
685.83545	4.27737E-09
685.97376	4.27531E-09
686.11206	4.27329E-09
686.25037	4.27128E-09
686.38867	4.26930E-09
686.52698	4.26735E-09
686.66528	4.26542E-09
686.80359	4.26351E-09
686.94190	4.26163E-09
687.08020	4.25977E-09
687.21851	4.25794E-09
687.35681	4.25613E-09
687.49506	4.25435E-09
687.63336	4.25259E-09
687.77167	4.25086E-09
687.90997	4.24915E-09
688.04828	4.24747E-09
688.18658	4.24581E-09
688.32489	4.24417E-09
688.46320	4.24256E-09
688.60150	4.24098E-09
688.73981	4.23941E-09
688.87811	4.23787E-09
689.01642	4.23635E-09
689.15472	4.23485E-09
689.29303	4.23338E-09
689.43127	4.23193E-09
689.56958	4.23049E-09
689.70789	4.22908E-09
689.84619	4.22768E-09
689.98450	4.22631E-09
690.12280	4.22495E-09
690.26111	4.22361E-09
690.39941	4.22228E-09
690.53772	4.22098E-09
690.67603	4.21969E-09
690.81433	4.21841E-09
690.95264	4.21715E-09
691.09094	4.21590E-09
691.22919	4.21466E-09
691.36749	4.21344E-09
691.50580	4.21223E-09
691.64410	4.21104E-09
691.78241	4.20985E-09
691.92072	4.20867E-09
692.05902	4.20751E-09
692.19733	4.20635E-09
692.33563	4.20521E-09
692.47394	4.20407E-09
692.61224	4.20295E-09
692.75055	4.20183E-09
692.88886	4.20072E-09
693.02716	4.19962E-09
693.16541	4.19852E-09
693.30371	4.19744E-09
693.44202	4.19636E-09
693.58032	4.19529E-09
693.71863	4.19422E-09
693.85693	4.19317E-09
693.99524	4.19212E-09
694.13355	4.19108E-09
694.27185	4.19004E-09
694.41016	4.18901E-09
694.54846	4.18800E-09
694.68677	4.18698E-09
694.82507	4.18598E-09
694.96338	4.18499E-09
695.10162	4.18400E-09
695.23993	4.18303E-09
695.37824	4.18206E-09
695.51654	4.18111E-09
695.65485	4.18016E-09
695.79315	4.17922E-09
695.93146	4.17830E-09
696.06976	4.17739E-09
696.20807	4.17649E-09
696.34638	4.17561E-09
696.48468	4.17474E-09
696.62299	4.17388E-09
696.76129	4.17304E-09
696.89954	4.17221E-09
697.03784	4.17139E-09
697.17615	4.17060E-09
697.31445	4.16983E-09
697.45276	4.16907E-09
697.59106	4.16833E-09
697.72937	4.16761E-09
697.86768	4.16691E-09
698.00598	4.16624E-09
698.14429	4.16559E-09
698.28259	4.16496E-09
698.42090	4.16436E-09
698.55920	4.16378E-09
698.69751	4.16322E-09
698.83575	4.16270E-09
698.97406	4.16220E-09
699.11237	4.16172E-09
699.25067	4.16127E-09
699.38898	4.16086E-09
699.52728	4.16047E-09
699.66559	4.16011E-09
699.80389	4.15978E-09
699.94220	4.15948E-09
700.08051	4.15921E-09
700.21881	4.15898E-09
700.35712	4.15878E-09
700.49542	4.15860E-09
700.63367	4.15847E-09
700.77197	4.15837E-09
700.91028	4.15830E-09
701.04858	4.15826E-09
701.18689	4.15826E-09
701.32520	4.15829E-09
701.46350	4.15835E-09
701.60181	4.15845E-09
701.74011	4.15859E-09
701.87842	4.15875E-09
702.01672	4.15896E-09
702.15503	4.15919E-09
702.29334	4.15946E-09
702.43164	4.15977E-09
702.56989	4.16010E-09
702.70819	4.16048E-09
702.84650	4.16088E-09
702.98480	4.16132E-09
703.12311	4.16180E-09
703.26141	4.16230E-09
703.39972	4.16283E-09
703.53803	4.16340E-09
703.67633	4.16400E-09
703.81464	4.16464E-09
703.95294	4.16530E-09
704.09125	4.16600E-09
704.22955	4.16672E-09
704.36780	4.16748E-09
704.50610	4.16826E-09
704.64441	4.16907E-09
704.78272	4.16991E-09
704.92102	4.17078E-09
705.05933	4.17167E-09
705.19763	4.17259E-09
705.33594	4.17354E-09
705.47424	4.17450E-09
705.61255	4.17550E-09
705.75085	4.17652E-09
705.88916	4.17756E-09
706.02747	4.17862E-09
706.16577	4.17970E-09
706.30402	4.18080E-09
706.44232	4.18193E-09
706.58063	4.18307E-09
706.71893	4.18424E-09
706.85724	4.18543E-09
706.99554	4.18663E-09
707.13385	4.18786E-09
707.27216	4.18910E-09
707.41046	4.19036E-09
707.54877	4.19163E-09
707.68707	4.19292E-09
707.82538	4.19423E-09
707.96368	4.19556E-09
708.10193	4.19689E-09
708.24023	4.19825E-09
708.37854	4.19962E-09
708.51685	4.20100E-09
708.65515	4.20240E-09
708.79346	4.20382E-09
708.93176	4.20525E-09
709.07007	4.20669E-09
709.20837	4.20815E-09
709.34668	4.20962E-09
709.48499	4.21111E-09
709.62329	4.21261E-09
709.76160	4.21413E-09
709.89990	4.21567E-09
710.03815	4.21722E-09
710.17645	4.21878E-09
710.31476	4.22037E-09
710.45306	4.22197E-09
710.59137	4.22358E-09
710.72968	4.22521E-09
710.86798	4.22686E-09
711.00629	4.22853E-09
711.14459	4.23022E-09
711.28290	4.23192E-09
711.42120	4.23365E-09
711.55951	4.23540E-09
711.69782	4.23716E-09
711.83612	4.23895E-09
711.97437	4.24076E-09
712.11267	4.24259E-09
712.25098	4.24444E-09
712.38928	4.24632E-09
712.52759	4.24822E-09
712.66589	4.25015E-09
712.80420	4.25210E-09
712.94251	4.25408E-09
713.08081	4.25608E-09
713.21912	4.25811E-09
713.35742	4.26017E-09
713.49573	4.26226E-09
713.63403	4.26437E-09
713.77228	4.26652E-09
713.91058	4.26869E-09
714.04889	4.27089E-09
714.18720	4.27313E-09
714.32550	4.27539E-09
714.46381	4.27769E-09
714.60211	4.28002E-09
714.74042	4.28238E-09
714.87872	4.28478E-09
715.01703	4.28721E-09
715.15533	4.28967E-09
715.29364	4.29216E-09
715.43195	4.29469E-09
715.57025	4.29725E-09
715.70850	4.29985E-09
715.84680	4.30248E-09
715.98511	4.30515E-09
716.12341	4.30784E-09
716.26172	4.31057E-09
716.40002	4.31334E-09
716.53833	4.31614E-09
716.67664	4.31897E-09
716.81494	4.32184E-09
716.95325	4.32474E-09
717.09155	4.32767E-09
717.22986	4.33063E-09
717.36816	4.33362E-09
717.50641	4.33665E-09
717.64471	4.33970E-09
717.78302	4.34279E-09
717.92133	4.34591E-09
718.05963	4.34905E-09
718.19794	4.35223E-09
718.33624	4.35543E-09
718.47455	4.35866E-09
718.61285	4.36191E-09
718.75116	4.36519E-09
718.88947	4.36849E-09
719.02777	4.37182E-09
719.16608	4.37516E-09
719.30438	4.37854E-09
719.44263	4.38193E-09
719.58093	4.38533E-09
719.71924	4.38876E-09
719.85754	4.39220E-09
719.99585	4.39567E-09
720.13416	4.39914E-09
720.27246	4.40263E-09
720.41077	4.40613E-09
720.54907	4.40964E-09
720.68738	4.41316E-09
720.82568	4.41670E-09
720.96399	4.42024E-09
721.10230	4.42378E-09
721.24054	4.42733E-09
721.37885	4.43089E-09
721.51715	4.43445E-09
721.65546	4.43802E-09
721.79376	4.44158E-09
721.93207	4.44515E-09
722.07037	4.44872E-09
722.20868	4.45228E-09
722.34699	4.45585E-09
722.48529	4.45941E-09
722.62360	4.46297E-09
722.76190	4.46652E-09
722.90021	4.47006E-09
723.03851	4.47361E-09
723.17676	4.47714E-09
723.31506	4.48066E-09
723.45337	4.48418E-09
723.59168	4.48768E-09
723.72998	4.49119E-09
723.86829	4.49467E-09
724.00659	4.49815E-09
724.14490	4.50162E-09
724.28320	4.50508E-09
724.42151	4.50852E-09
724.55981	4.51196E-09
724.69812	4.51538E-09
724.83643	4.51879E-09
724.97473	4.52218E-09
725.11298	4.52557E-09
725.25128	4.52894E-09
725.38959	4.53230E-09
725.52789	4.53565E-09
725.66620	4.53899E-09
725.80450	4.54231E-09
725.94281	4.54563E-09
726.08112	4.54893E-09
726.21942	4.55222E-09
726.35773	4.55551E-09
726.49603	4.55878E-09
726.63434	4.56205E-09
726.77264	4.56530E-09
726.91089	4.56855E-09
727.04919	4.57179E-09
727.18750	4.57502E-09
727.32581	4.57825E-09
727.46411	4.58148E-09
727.60242	4.58470E-09
727.74072	4.58791E-09
727.87903	4.59113E-09
728.01733	4.59434E-09
728.15564	4.59755E-09
728.29395	4.60075E-09
728.43225	4.60397E-09
728.57056	4.60718E-09
728.70886	4.61039E-09
728.84711	4.61361E-09
728.98541	4.61682E-09
729.12372	4.62005E-09
729.26202	4.62328E-09
729.40033	4.62651E-09
729.53864	4.62976E-09
729.67694	4.63301E-09
729.81525	4.63627E-09
729.95355	4.63955E-09
730.09186	4.64283E-09
730.23016	4.64613E-09
730.36847	4.64943E-09
730.50678	4.65275E-09
730.64502	4.65608E-09
730.78333	4.65943E-09
730.92163	4.66279E-09
731.05994	4.66616E-09
731.19824	4.66955E-09
731.33655	4.67296E-09
731.47485	4.67638E-09
731.61316	4.67982E-09
731.75147	4.68327E-09
731.88977	4.68674E-09
732.02808	4.69023E-09
732.16638	4.69373E-09
732.30469	4.69726E-09
732.44299	4.70080E-09
732.58124	4.70435E-09
732.71954	4.70792E-09
732.85785	4.71151E-09
732.99616	4.71512E-09
733.13446	4.71874E-09
733.27277	4.72238E-09
733.41107	4.72604E-09
733.54938	4.72972E-09
733.68768	4.73340E-09
733.82599	4.73711E-09
733.96429	4.74083E-09
734.10260	4.74456E-09
734.24091	4.74832E-09
734.37915	4.75208E-09
734.51746	4.75585E-09
734.65576	4.75964E-09
734.79407	4.76344E-09
734.93237	4.76725E-09
735.07068	4.77107E-09
735.20898	4.77490E-09
735.34729	4.77874E-09
735.48560	4.78259E-09
735.62390	4.78644E-09
735.76221	4.79030E-09
735.90051	4.79417E-09
736.03882	4.79804E-09
736.17712	4.80192E-09
736.31537	4.80580E-09
736.45367	4.80968E-09
736.59198	4.81356E-09
736.73029	4.81744E-09
736.86859	4.82133E-09
737.00690	4.82521E-09
737.14520	4.82910E-09
737.28351	4.83298E-09
737.42181	4.83686E-09
737.56012	4.84074E-09
737.69843	4.84461E-09
737.83673	4.84848E-09
737.97504	4.85234E-09
738.11334	4.85620E-09
738.25159	4.86006E-09
738.38989	4.86390E-09
738.52820	4.86775E-09
738.66650	4.87159E-09
738.80481	4.87542E-09
738.94312	4.87924E-09
739.08142	4.88305E-09
739.21973	4.88686E-09
739.35803	4.89067E-09
739.49634	4.89446E-09
739.63464	4.89825E-09
739.77295	4.90203E-09
739.91126	4.90581E-09
740.04950	4.90958E-09
740.18781	4.91335E-09
740.32611	4.91711E-09
740.46442	4.92086E-09
740.60272	4.92461E-09
740.74103	4.92836E-09
740.87933	4.93210E-09
741.01764	4.93584E-09
741.15595	4.93957E-09
741.29425	4.94330E-09
741.43256	4.94704E-09
741.57086	4.95077E-09
741.70917	4.95451E-09
741.84747	4.95824E-09
741.98572	4.96198E-09
742.12402	4.96572E-09
742.26233	4.96946E-09
742.40064	4.97320E-09
742.53894	4.97696E-09
742.67725	4.98071E-09
742.81555	4.98448E-09
742.95386	4.98825E-09
743.09216	4.99204E-09
743.23047	4.99583E-09
743.36877	4.99963E-09
743.50708	5.00345E-09
743.64539	5.00729E-09
743.78363	5.01113E-09
743.92194	5.01499E-09
744.06024	5.01887E-09
744.19855	5.02276E-09
744.33685	5.02667E-09
744.47516	5.03060E-09
744.61346	5.03455E-09
744.75177	5.03851E-09
744.89008	5.04250E-09
745.02838	5.04650E-09
745.16669	5.05053E-09
745.30499	5.05457E-09
745.44330	5.05864E-09
745.58160	5.06274E-09
745.71985	5.06685E-09
745.85815	5.07099E-09
745.99646	5.07515E-09
746.13477	5.07933E-09
746.27307	5.08354E-09
746.41138	5.08777E-09
746.54968	5.09202E-09
746.68799	5.09629E-09
746.82629	5.10059E-09
746.96460	5.10490E-09
747.10291	5.10924E-09
747.24121	5.11360E-09
747.37952	5.11798E-09
747.51776	5.12237E-09
747.65607	5.12679E-09
747.79437	5.13122E-09
747.93268	5.13567E-09
748.07098	5.14013E-09
748.20929	5.14461E-09
748.34760	5.14910E-09
748.48590	5.15359E-09
748.62421	5.15811E-09
748.76251	5.16263E-09
748.90082	5.16715E-09
749.03912	5.17168E-09
749.17743	5.17622E-09
749.31574	5.18075E-09
749.45398	5.18529E-09
749.59229	5.18982E-09
749.73059	5.19435E-09
749.86890	5.19887E-09
750.00720	5.20338E-09
750.14551	5.20788E-09
750.28381	5.21237E-09
750.42212	5.21684E-09
750.56043	5.22130E-09
750.69873	5.22573E-09
750.83704	5.23014E-09
750.97534	5.23453E-09
751.11365	5.23890E-09
751.25189	5.24323E-09
751.39020	5.24753E-09
751.52850	5.25180E-09
751.66681	5.25604E-09
751.80512	5.26024E-09
751.94342	5.26439E-09
752.08173	5.26851E-09
752.22003	5.27258E-09
752.35834	5.27660E-09
752.49664	5.28058E-09
752.63495	5.28450E-09
752.77325	5.28838E-09
752.91156	5.29220E-09
753.04987	5.29596E-09
753.18811	5.29967E-09
753.32642	5.30332E-09
753.46472	5.30690E-09
753.60303	5.31042E-09
753.74133	5.31388E-09
753.87964	5.31728E-09
754.01794	5.32061E-09
754.15625	5.32388E-09
754.29456	5.32707E-09
754.43286	5.33020E-09
754.57117	5.33326E-09
754.70947	5.33625E-09
754.84778	5.33917E-09
754.98608	5.34202E-09
755.12433	5.34480E-09
755.26263	5.34751E-09
755.40094	5.35015E-09
755.53925	5.35272E-09
755.67755	5.35522E-09
755.81586	5.35765E-09
755.95416	5.36001E-09
756.09247	5.36230E-09
756.23077	5.36452E-09
756.36908	5.36668E-09
756.50739	5.36877E-09
756.64569	5.37081E-09
756.78400	5.37277E-09
756.92224	5.37467E-09
757.06055	5.37652E-09
757.19885	5.37830E-09
757.33716	5.38003E-09
757.47546	5.38171E-09
757.61377	5.38333E-09
757.75208	5.38490E-09
757.89038	5.38642E-09
758.02869	5.38789E-09
758.16699	5.38933E-09
758.30530	5.39071E-09
758.44360	5.39206E-09
758.58191	5.39337E-09
758.72022	5.39465E-09
758.85846	5.39589E-09
758.99677	5.39711E-09
759.13507	5.39829E-09
759.27338	5.39945E-09
759.41168	5.40058E-09
759.54999	5.40169E-09
759.68829	5.40278E-09
759.82660	5.40386E-09
759.96491	5.40493E-09
760.10321	5.40598E-09
760.24152	5.40703E-09
760.37982	5.40807E-09
760.51813	5.40911E-09
760.65637	5.41014E-09
760.79468	5.41118E-09
760.93298	5.41222E-09
761.07129	5.41326E-09
761.20960	5.41431E-09
761.34790	5.41537E-09
761.48621	5.41643E-09
761.62451	5.41751E-09
761.76282	5.41860E-09
761.90112	5.41970E-09
762.03943	5.42083E-09
762.17773	5.42196E-09
762.31604	5.42312E-09
762.45435	5.42430E-09
762.59259	5.42550E-09
762.73090	5.42672E-09
762.86920	5.42796E-09
763.00751	5.42922E-09
763.14581	5.43051E-09
763.28412	5.43182E-09
763.42242	5.43316E-09
763.56073	5.43451E-09
763.69904	5.43589E-09
763.83734	5.43730E-09
763.97565	5.43873E-09
764.11395	5.44018E-09
764.25226	5.44165E-09
764.39050	5.44315E-09
764.52881	5.44467E-09
764.66711	5.44620E-09
764.80542	5.44776E-09
764.94373	5.44934E-09
765.08203	5.45093E-09
765.22034	5.45253E-09
765.35864	5.45416E-09
765.49695	5.45579E-09
765.63525	5.45744E-09
765.77356	5.45909E-09
765.91187	5.46076E-09
766.05017	5.46242E-09
766.18848	5.46410E-09
766.32672	5.46577E-09
766.46503	5.46745E-09
766.60333	5.46912E-09
766.74164	5.47079E-09
766.87994	5.47245E-09
767.01825	5.47410E-09
767.15656	5.47574E-09
767.29486	5.47737E-09
767.43317	5.47898E-09
767.57147	5.48058E-09
767.70978	5.48216E-09
767.84808	5.48371E-09
767.98639	5.48524E-09
768.12470	5.48675E-09
768.26294	5.48822E-09
768.40125	5.48967E-09
768.53955	5.49108E-09
768.67786	5.49245E-09
768.81616	5.49379E-09
768.95447	5.49509E-09
769.09277	5.49634E-09
769.23108	5.49756E-09
769.36939	5.49873E-09
769.50769	5.49985E-09
769.64600	5.50093E-09
769.78430	5.50196E-09
769.92261	5.50293E-09
770.06085	5.50386E-09
770.19916	5.50473E-09
770.33746	5.50555E-09
770.47577	5.50631E-09
770.61408	5.50702E-09
770.75238	5.50767E-09
770.89069	5.50826E-09
771.02899	5.50880E-09
771.16730	5.50927E-09
771.30560	5.50970E-09
771.44391	5.51006E-09
771.58221	5.51037E-09
771.72052	5.51061E-09
771.85883	5.51080E-09
771.99707	5.51094E-09
772.13538	5.51101E-09
772.27368	5.51104E-09
772.41199	5.51100E-09
772.55029	5.51092E-09
772.68860	5.51078E-09
772.82690	5.51059E-09
772.96521	5.51036E-09
773.10352	5.51008E-09
773.24182	5.50975E-09
773.38013	5.50938E-09
773.51843	5.50897E-09
773.65674	5.50851E-09
773.79498	5.50802E-09
773.93329	5.50749E-09
774.07159	5.50693E-09
774.20990	5.50633E-09
774.34821	5.50571E-09
774.48651	5.50506E-09
774.62482	5.50439E-09
774.76312	5.50369E-09
774.90143	5.50298E-09
775.03973	5.50226E-09
775.17804	5.50152E-09
775.31635	5.50078E-09
775.45465	5.50002E-09
775.59296	5.49927E-09
775.73120	5.49851E-09
775.86951	5.49776E-09
776.00781	5.49701E-09
776.14612	5.49628E-09
776.28442	5.49555E-09
776.42273	5.49484E-09
776.56104	5.49415E-09
776.69934	5.49348E-09
776.83765	5.49283E-09
776.97595	5.49220E-09
777.11426	5.49160E-09
777.25256	5.49104E-09
777.39087	5.49051E-09
777.52911	5.49001E-09
777.66742	5.48956E-09
777.80573	5.48914E-09
777.94403	5.48877E-09
778.08234	5.48844E-09
778.22064	5.48816E-09
778.35895	5.48794E-09
778.49725	5.48777E-09
778.63556	5.48765E-09
778.77387	5.48759E-09
778.91217	5.48758E-09
779.05048	5.48763E-09
779.18878	5.48775E-09
779.32709	5.48793E-09
779.46533	5.48817E-09
779.60364	5.48848E-09
779.74194	5.48885E-09
779.88025	5.48929E-09
780.01856	5.48980E-09
780.15686	5.49038E-09
780.29517	5.49103E-09
780.43347	5.49174E-09
780.57178	5.49253E-09
780.71008	5.49338E-09
780.84839	5.49431E-09
780.98669	5.49530E-09
781.12500	5.49637E-09
781.26325	5.49751E-09
781.40155	5.49871E-09
781.53986	5.49999E-09
781.67816	5.50133E-09
781.81647	5.50274E-09
781.95477	5.50422E-09
782.09308	5.50577E-09
782.23138	5.50738E-09
782.36969	5.50905E-09
782.50800	5.51080E-09
782.64630	5.51260E-09
782.78461	5.51446E-09
782.92291	5.51638E-09
783.06122	5.51836E-09
783.19946	5.52040E-09
783.33777	5.52250E-09
783.47607	5.52464E-09
783.61438	5.52684E-09
783.75269	5.52910E-09
783.89099	5.53139E-09
784.02930	5.53374E-09
784.16760	5.53613E-09
784.30591	5.53857E-09
784.44421	5.54105E-09
784.58252	5.54356E-09
784.72083	5.54612E-09
784.85913	5.54871E-09
784.99744	5.55134E-09
785.13568	5.55400E-09
785.27399	5.55669E-09
785.41229	5.55940E-09
785.55060	5.56215E-09
785.68890	5.56492E-09
785.82721	5.56771E-09
785.96552	5.57052E-09
786.10382	5.57336E-09
786.24213	5.57620E-09
786.38043	5.57907E-09
786.51874	5.58195E-09
786.65704	5.58485E-09
786.79535	5.58775E-09
786.93359	5.59067E-09
787.07190	5.59359E-09
787.21021	5.59652E-09
787.34851	5.59946E-09
787.48682	5.60241E-09
787.62512	5.60535E-09
787.76343	5.60831E-09
787.90173	5.61126E-09
788.04004	5.61422E-09
788.17835	5.61718E-09
788.31665	5.62014E-09
788.45496	5.62310E-09
788.59326	5.62605E-09
788.73157	5.62901E-09
788.86981	5.63197E-09
789.00812	5.63492E-09
789.14642	5.63787E-09
789.28473	5.64081E-09
789.42304	5.64376E-09
789.56134	5.64669E-09
789.69965	5.64963E-09
789.83795	5.65256E-09
789.97626	5.65550E-09
790.11456	5.65843E-09
790.25287	5.66135E-09
790.39117	5.66428E-09
790.52948	5.66721E-09
790.66773	5.67013E-09
790.80603	5.67306E-09
790.94434	5.67598E-09
791.08264	5.67891E-09
791.22095	5.68184E-09
791.35925	5.68477E-09
791.49756	5.68771E-09
791.63586	5.69064E-09
791.77417	5.69359E-09
791.91248	5.69654E-09
792.05078	5.69949E-09
792.18909	5.70245E-09
792.32739	5.70542E-09
792.46570	5.70840E-09
792.60394	5.71140E-09
792.74225	5.71440E-09
792.88055	5.71741E-09
793.01886	5.72044E-09
793.15717	5.72348E-09
793.29547	5.72653E-09
793.43378	5.72961E-09
793.57208	5.73270E-09
793.71039	5.73580E-09
793.84869	5.73893E-09
793.98700	5.74207E-09
794.12531	5.74523E-09
794.26361	5.74842E-09
794.40186	5.75162E-09
794.54016	5.75484E-09
794.67847	5.75808E-09
794.81677	5.76135E-09
794.95508	5.76464E-09
795.09338	5.76795E-09
795.23169	5.77128E-09
795.37000	5.77463E-09
795.50830	5.77801E-09
795.64661	5.78141E-09
795.78491	5.78484E-09
795.92322	5.78829E-09
796.06152	5.79176E-09
796.19983	5.79525E-09
796.33807	5.79876E-09
796.47638	5.80229E-09
796.61469	5.80585E-09
796.75299	5.80942E-09
796.89130	5.81302E-09
797.02960	5.81663E-09
797.16791	5.82026E-09
797.30621	5.82392E-09
797.44452	5.82758E-09
797.58283	5.83126E-09
797.72113	5.83495E-09
797.85944	5.83866E-09
797.99774	5.84238E-09
798.13605	5.84610E-09
798.27429	5.84984E-09
798.41260	5.85358E-09
798.55090	5.85733E-09
798.68921	5.86108E-09
798.82752	5.86484E-09
798.96582	5.86859E-09
799.10413	5.87234E-09
799.24243	5.87610E-09
799.38074	5.87985E-09
799.51904	5.88359E-09
799.65735	5.88732E-09
799.79565	5.89105E-09
799.93396	5.89476E-09
800.07221	5.89846E-09
800.21051	5.90214E-09
800.34882	5.90581E-09
800.48712	5.90945E-09
800.62543	5.91308E-09
800.76373	5.91668E-09
800.90204	5.92025E-09
801.04034	5.92380E-09
801.17865	5.92732E-09
801.31696	5.93081E-09
801.45526	5.93426E-09
801.59357	5.93769E-09
801.73187	5.94108E-09
801.87018	5.94442E-09
802.00842	5.94772E-09
802.14673	5.95098E-09
802.28503	5.95420E-09
802.42334	5.95737E-09
802.56165	5.96049E-09
802.69995	5.96356E-09
802.83826	5.96657E-09
802.97656	5.96954E-09
803.11487	5.97246E-09
803.25317	5.97532E-09
803.39148	5.97812E-09
803.52979	5.98087E-09
803.66809	5.98356E-09
803.80634	5.98619E-09
803.94464	5.98875E-09
804.08295	5.99127E-09
804.22125	5.99371E-09
804.35956	5.99610E-09
804.49786	5.99842E-09
804.63617	6.00068E-09
804.77448	6.00287E-09
804.91278	6.00500E-09
805.05109	6.00707E-09
805.18939	6.00907E-09
805.32770	6.01101E-09
805.46600	6.01289E-09
805.60431	6.01470E-09
805.74255	6.01645E-09
805.88086	6.01814E-09
806.01917	6.01977E-09
806.15747	6.02134E-09
806.29578	6.02285E-09
806.43408	6.02430E-09
806.57239	6.02569E-09
806.71069	6.02702E-09
806.84900	6.02830E-09
806.98731	6.02952E-09
807.12561	6.03070E-09
807.26392	6.03183E-09
807.40222	6.03290E-09
807.54047	6.03392E-09
807.67877	6.03490E-09
807.81708	6.03583E-09
807.95538	6.03672E-09
808.09369	6.03757E-09
808.23200	6.03838E-09
808.37030	6.03916E-09
808.50861	6.03990E-09
808.64691	6.04061E-09
808.78522	6.04129E-09
808.92352	6.04195E-09
809.06183	6.04258E-09
809.20013	6.04319E-09
809.33844	6.04378E-09
809.47669	6.04436E-09
809.61499	6.04492E-09
809.75330	6.04547E-09
809.89160	6.04600E-09
810.02991	6.04654E-09
810.16821	6.04706E-09
810.30652	6.04758E-09
810.44482	6.04811E-09
810.58313	6.04864E-09
810.72144	6.04917E-09
810.85974	6.04972E-09
810.99805	6.05028E-09
811.13635	6.05085E-09
811.27460	6.05144E-09
811.41290	6.05206E-09
811.55121	6.05269E-09
811.68951	6.05335E-09
811.82782	6.05404E-09
811.96613	6.05476E-09
812.10443	6.05551E-09
812.24274	6.05630E-09
812.38104	6.05712E-09
812.51935	6.05799E-09
812.65765	6.05890E-09
812.79596	6.05984E-09
812.93427	6.06084E-09
813.07257	6.06188E-09
813.21082	6.06297E-09
813.34912	6.06412E-09
813.48743	6.06531E-09
813.62573	6.06656E-09
813.76404	6.06788E-09
813.90234	6.06924E-09
814.04065	6.07067E-09
814.17896	6.07216E-09
814.31726	6.07371E-09
814.45557	6.07533E-09
814.59387	6.07702E-09
814.73218	6.07876E-09
814.87048	6.08057E-09
815.00879	6.08245E-09
815.14703	6.08440E-09
815.28534	6.08641E-09
815.42365	6.08850E-09
815.56195	6.09065E-09
815.70026	6.09287E-09
815.83856	6.09516E-09
815.97687	6.09752E-09
816.11517	6.09994E-09
816.25348	6.10244E-09
816.39179	6.10500E-09
816.53009	6.10763E-09
816.66840	6.11033E-09
816.80670	6.11309E-09
816.94495	6.11592E-09
817.08325	6.11880E-09
817.22156	6.12175E-09
817.35986	6.12476E-09
817.49817	6.12784E-09
817.63648	6.13096E-09
817.77478	6.13415E-09
817.91309	6.13739E-09
818.05139	6.14068E-09
818.18970	6.14402E-09
818.32800	6.14740E-09
818.46631	6.15084E-09
818.60461	6.15432E-09
818.74292	6.15783E-09
818.88117	6.16138E-09
819.01947	6.16497E-09
819.15778	6.16858E-09
819.29608	6.17223E-09
819.43439	6.17591E-09
819.57269	6.17961E-09
819.71100	6.18332E-09
819.84930	6.18706E-09
819.98761	6.19081E-09
820.12592	6.19457E-09
820.26422	6.19833E-09
820.40253	6.20209E-09
820.54083	6.20585E-09
820.67908	6.20960E-09
820.81738	6.21335E-09
820.95569	6.21709E-09
821.09399	6.22081E-09
821.23230	6.22450E-09
821.37061	6.22818E-09
821.50891	6.23182E-09
821.64722	6.23542E-09
821.78552	6.23899E-09
821.92383	6.24252E-09
822.06213	6.24601E-09
822.20044	6.24944E-09
822.33875	6.25283E-09
822.47705	6.25616E-09
822.61530	6.25942E-09
822.75360	6.26263E-09
822.89191	6.26576E-09
823.03021	6.26883E-09
823.16852	6.27182E-09
823.30682	6.27473E-09
823.44513	6.27756E-09
823.58344	6.28031E-09
823.72174	6.28297E-09
823.86005	6.28553E-09
823.99835	6.28801E-09
824.13666	6.29039E-09
824.27496	6.29267E-09
824.41321	6.29485E-09
824.55151	6.29691E-09
824.68982	6.29888E-09
824.82813	6.30074E-09
824.96643	6.30249E-09
825.10474	6.30413E-09
825.24304	6.30565E-09
825.38135	6.30706E-09
825.51965	6.30836E-09
825.65796	6.30954E-09
825.79627	6.31060E-09
825.93457	6.31155E-09
826.07288	6.31238E-09
826.21118	6.31309E-09
826.34943	6.31368E-09
826.48773	6.31415E-09
826.62604	6.31451E-09
826.76434	6.31475E-09
826.90265	6.31488E-09
827.04096	6.31490E-09
827.17926	6.31480E-09
827.31757	6.31459E-09
827.45587	6.31427E-09
827.59418	6.31384E-09
827.73248	6.31331E-09
827.87079	6.31267E-09
828.00909	6.31194E-09
828.14740	6.31111E-09
828.28565	6.31018E-09
828.42395	6.30916E-09
828.56226	6.30805E-09
828.70056	6.30686E-09
828.83887	6.30559E-09
828.97717	6.30424E-09
829.11548	6.30282E-09
829.25378	6.30133E-09
829.39209	6.29977E-09
829.53040	6.29815E-09
829.66870	6.29648E-09
829.80701	6.29475E-09
829.94531	6.29297E-09
830.08356	6.29115E-09
830.22186	6.28930E-09
830.36017	6.28741E-09
830.49847	6.28548E-09
830.63678	6.28354E-09
830.77509	6.28158E-09
830.91339	6.27961E-09
831.05170	6.27763E-09
831.19000	6.27564E-09
831.32831	6.27364E-09
831.46661	6.27166E-09
831.60492	6.26969E-09
831.74323	6.26772E-09
831.88153	6.26578E-09
832.01978	6.26386E-09
832.15808	6.26197E-09
832.29639	6.26011E-09
832.43469	6.25829E-09
832.57300	6.25651E-09
832.71130	6.25478E-09
832.84961	6.25310E-09
832.98792	6.25147E-09
833.12622	6.24990E-09
833.26453	6.24839E-09
833.40283	6.24694E-09
833.54114	6.24556E-09
833.67944	6.24425E-09
833.81769	6.24301E-09
833.95599	6.24185E-09
834.09430	6.24077E-09
834.23261	6.23978E-09
834.37091	6.23887E-09
834.50922	6.23805E-09
834.64752	6.23731E-09
834.78583	6.23667E-09
834.92413	6.23612E-09
835.06244	6.23567E-09
835.20075	6.23531E-09
835.33905	6.23505E-09
835.47736	6.23488E-09
835.61566	6.23481E-09
835.75391	6.23485E-09
835.89221	6.23498E-09
836.03052	6.23521E-09
836.16882	6.23555E-09
836.30713	6.23597E-09
836.44544	6.23650E-09
836.58374	6.23713E-09
836.72205	6.23786E-09
836.86035	6.23868E-09
836.99866	6.23959E-09
837.13696	6.24060E-09
837.27527	6.24170E-09
837.41357	6.24288E-09
837.55182	6.24416E-09
837.69013	6.24552E-09
837.82843	6.24696E-09
837.96674	6.24849E-09
838.10504	6.25009E-09
838.24335	6.25177E-09
838.38165	6.25352E-09
838.51996	6.25534E-09
838.65826	6.25723E-09
838.79657	6.25918E-09
838.93488	6.26119E-09
839.07318	6.26325E-09
839.21149	6.26537E-09
839.34979	6.26754E-09
839.48804	6.26975E-09
839.62634	6.27200E-09
839.76465	6.27429E-09
839.90295	6.27662E-09
840.04126	6.27897E-09
840.17957	6.28134E-09
840.31787	6.28374E-09
840.45618	6.28615E-09
840.59448	6.28858E-09
840.73279	6.29101E-09
840.87109	6.29345E-09
841.00940	6.29588E-09
841.14771	6.29832E-09
841.28595	6.30075E-09
841.42426	6.30317E-09
841.56256	6.30557E-09
841.70087	6.30796E-09
841.83917	6.31032E-09
841.97748	6.31266E-09
842.11578	6.31496E-09
842.25409	6.31723E-09
842.39240	6.31946E-09
842.53070	6.32165E-09
842.66901	6.32380E-09
842.80731	6.32591E-09
842.94562	6.32796E-09
843.08392	6.32997E-09
843.22217	6.33192E-09
843.36047	6.33381E-09
843.49878	6.33565E-09
843.63709	6.33742E-09
843.77539	6.33914E-09
843.91370	6.34079E-09
844.05200	6.34237E-09
844.19031	6.34390E-09
844.32861	6.34535E-09
844.46692	6.34674E-09
844.60523	6.34806E-09
844.74353	6.34931E-09
844.88184	6.35049E-09
845.02014	6.35161E-09
845.15839	6.35266E-09
845.29669	6.35363E-09
845.43500	6.35454E-09
845.57330	6.35538E-09
845.71161	6.35615E-09
845.84992	6.35686E-09
845.98822	6.35751E-09
846.12653	6.35809E-09
846.26483	6.35861E-09
846.40314	6.35907E-09
846.54144	6.35947E-09
846.67975	6.35982E-09
846.81805	6.36011E-09
846.95630	6.36035E-09
847.09460	6.36053E-09
847.23291	6.36067E-09
847.37122	6.36077E-09
847.50952	6.36082E-09
847.64783	6.36083E-09
847.78613	6.36080E-09
847.92444	6.36074E-09
848.06274	6.36065E-09
848.20105	6.36053E-09
848.33936	6.36038E-09
848.47766	6.36021E-09
848.61597	6.36002E-09
848.75427	6.35981E-09
848.89252	6.35958E-09
849.03082	6.35934E-09
849.16913	6.35910E-09
849.30743	6.35884E-09
849.44574	6.35859E-09
849.58405	6.35833E-09
849.72235	6.35808E-09
849.86066	6.35782E-09
849.99896	6.35757E-09
850.13727	6.35733E-09
850.27557	6.35711E-09
850.41388	6.35689E-09
850.55219	6.35669E-09
850.69043	6.35651E-09
850.82874	6.35634E-09
850.96704	6.35619E-09
851.10535	6.35607E-09
851.24365	6.35596E-09
851.38196	6.35588E-09
851.52026	6.35583E-09
851.65857	6.35579E-09
851.79688	6.35579E-09
851.93518	6.35581E-09
852.07349	6.35585E-09
852.21179	6.35593E-09
852.35010	6.35603E-09
852.48840	6.35616E-09
852.62665	6.35632E-09
852.76495	6.35651E-09
852.90326	6.35672E-09
853.04157	6.35696E-09
853.17987	6.35723E-09
853.31818	6.35752E-09
853.45648	6.35784E-09
853.59479	6.35819E-09
853.73309	6.35856E-09
853.87140	6.35894E-09
854.00971	6.35936E-09
854.14801	6.35978E-09
854.28632	6.36022E-09
854.42456	6.36068E-09
854.56287	6.36116E-09
854.70117	6.36165E-09
854.83948	6.36214E-09
854.97778	6.36264E-09
855.11609	6.36314E-09
855.25440	6.36365E-09
855.39270	6.36416E-09
855.53101	6.36466E-09
855.66931	6.36517E-09
855.80762	6.36567E-09
855.94592	6.36616E-09
856.08423	6.36664E-09
856.22253	6.36711E-09
856.36078	6.36756E-09
856.49908	6.36800E-09
856.63739	6.36842E-09
856.77570	6.36881E-09
856.91400	6.36918E-09
857.05231	6.36953E-09
857.19061	6.36985E-09
857.32892	6.37014E-09
857.46722	6.37040E-09
857.60553	6.37062E-09
857.74384	6.37081E-09
857.88214	6.37096E-09
858.02045	6.37107E-09
858.15875	6.37114E-09
858.29700	6.37117E-09
858.43530	6.37117E-09
858.57361	6.37112E-09
858.71191	6.37102E-09
858.85022	6.37088E-09
858.98853	6.37069E-09
859.12683	6.37046E-09
859.26514	6.37019E-09
859.40344	6.36987E-09
859.54175	6.36951E-09
859.68005	6.36910E-09
859.81836	6.36865E-09
859.95667	6.36816E-09
860.09491	6.36761E-09
860.23322	6.36703E-09
860.37152	6.36641E-09
860.50983	6.36575E-09
860.64813	6.36504E-09
860.78644	6.36430E-09
860.92474	6.36353E-09
861.06305	6.36273E-09
861.20136	6.36190E-09
861.33966	6.36103E-09
861.47797	6.36014E-09
861.61627	6.35922E-09
861.75458	6.35829E-09
861.89288	6.35733E-09
862.03113	6.35636E-09
862.16943	6.35537E-09
862.30774	6.35436E-09
862.44605	6.35336E-09
862.58435	6.35235E-09
862.72266	6.35133E-09
862.86096	6.35033E-09
862.99927	6.34932E-09
863.13757	6.34832E-09
863.27588	6.34733E-09
863.41419	6.34636E-09
863.55249	6.34540E-09
863.69080	6.34446E-09
863.82904	6.34355E-09
863.96735	6.34267E-09
864.10565	6.34181E-09
864.24396	6.34099E-09
864.38226	6.34021E-09
864.52057	6.33946E-09
864.65888	6.33876E-09
864.79718	6.33810E-09
864.93549	6.33750E-09
865.07379	6.33694E-09
865.21210	6.33644E-09
865.35040	6.33600E-09
865.48871	6.33561E-09
865.62701	6.33528E-09
865.76526	6.33503E-09
865.90356	6.33483E-09
866.04187	6.33471E-09
866.18018	6.33465E-09
866.31848	6.33467E-09
866.45679	6.33475E-09
866.59509	6.33491E-09
866.73340	6.33515E-09
866.87170	6.33546E-09
867.01001	6.33585E-09
867.14832	6.33632E-09
867.28662	6.33687E-09
867.42493	6.33750E-09
867.56317	6.33820E-09
867.70148	6.33899E-09
867.83978	6.33985E-09
867.97809	6.34079E-09
868.11639	6.34181E-09
868.25470	6.34291E-09
868.39301	6.34408E-09
868.53131	6.34533E-09
868.66962	6.34666E-09
868.80792	6.34805E-09
868.94623	6.34952E-09
869.08453	6.35106E-09
869.22284	6.35267E-09
869.36115	6.35434E-09
869.49939	6.35607E-09
869.63770	6.35786E-09
869.77600	6.35971E-09
869.91431	6.36161E-09
870.05261	6.36357E-09
870.19092	6.36558E-09
870.32922	6.36763E-09
870.46753	6.36972E-09
870.60584	6.37186E-09
870.74414	6.37403E-09
870.88245	6.37625E-09
871.02075	6.37849E-09
871.15906	6.38075E-09
871.29730	6.38304E-09
871.43561	6.38535E-09
871.57391	6.38767E-09
871.71222	6.39000E-09
871.85053	6.39235E-09
871.98883	6.39469E-09
872.12714	6.39705E-09
872.26544	6.39939E-09
872.40375	6.40174E-09
872.54205	6.40408E-09
872.68036	6.40641E-09
872.81867	6.40871E-09
872.95697	6.41100E-09
873.09528	6.41327E-09
873.23352	6.41551E-09
873.37183	6.41773E-09
873.51013	6.41992E-09
873.64844	6.42206E-09
873.78674	6.42418E-09
873.92505	6.42625E-09
874.06335	6.42829E-09
874.20166	6.43028E-09
874.33997	6.43222E-09
874.47827	6.43412E-09
874.61658	6.43596E-09
874.75488	6.43776E-09
874.89319	6.43951E-09
875.03149	6.44120E-09
875.16974	6.44285E-09
875.30804	6.44443E-09
875.44635	6.44596E-09
875.58466	6.44743E-09
875.72296	6.44885E-09
875.86127	6.45021E-09
875.99957	6.45152E-09
876.13788	6.45278E-09
876.27618	6.45397E-09
876.41449	6.45512E-09
876.55280	6.45621E-09
876.69110	6.45725E-09
876.82941	6.45824E-09
876.96765	6.45918E-09
877.10596	6.46008E-09
877.24426	6.46094E-09
877.38257	6.46175E-09
877.52087	6.46253E-09
877.65918	6.46327E-09
877.79749	6.46398E-09
877.93579	6.46466E-09
878.07410	6.46531E-09
878.21240	6.46594E-09
878.35071	6.46654E-09
878.48901	6.46712E-09
878.62732	6.46769E-09
878.76563	6.46825E-09
878.90387	6.46881E-09
879.04218	6.46935E-09
879.18048	6.46990E-09
879.31879	6.47044E-09
879.45709	6.47100E-09
879.59540	6.47157E-09
879.73370	6.47215E-09
879.87201	6.47276E-09
880.01032	6.47338E-09
880.14862	6.47403E-09
880.28693	6.47471E-09
880.42523	6.47543E-09
880.56354	6.47618E-09
880.70178	6.47698E-09
880.84009	6.47782E-09
880.97839	6.47870E-09
881.11670	6.47964E-09
881.25501	6.48064E-09
881.39331	6.48169E-09
881.53162	6.48280E-09
881.66992	6.48398E-09
881.80823	6.48523E-09
881.94653	6.48654E-09
882.08484	6.48792E-09
882.22315	6.48938E-09
882.36145	6.49092E-09
882.49976	6.49253E-09
882.63800	6.49422E-09
882.77631	6.49599E-09
882.91461	6.49785E-09
883.05292	6.49980E-09
883.19122	6.50182E-09
883.32953	6.50394E-09
883.46783	6.50614E-09
883.60614	6.50843E-09
883.74445	6.51080E-09
883.88275	6.51327E-09
884.02106	6.51582E-09
884.15936	6.51845E-09
884.29767	6.52118E-09
884.43591	6.52400E-09
884.57422	6.52689E-09
884.71252	6.52988E-09
884.85083	6.53294E-09
884.98914	6.53608E-09
885.12744	6.53931E-09
885.26575	6.54261E-09
885.40405	6.54599E-09
885.54236	6.54944E-09
885.68066	6.55296E-09
885.81897	6.55655E-09
885.95728	6.56020E-09
886.09558	6.56392E-09
886.23389	6.56769E-09
886.37213	6.57152E-09
886.51044	6.57540E-09
886.64874	6.57933E-09
886.78705	6.58331E-09
886.92535	6.58732E-09
887.06366	6.59138E-09
887.20197	6.59546E-09
887.34027	6.59958E-09
887.47858	6.60372E-09
887.61688	6.60788E-09
887.75519	6.61205E-09
887.89349	6.61624E-09
888.03180	6.62043E-09
888.17011	6.62462E-09
888.30835	6.62882E-09
888.44666	6.63301E-09
888.58496	6.63718E-09
888.72327	6.64134E-09
888.86157	6.64549E-09
888.99988	6.64961E-09
889.13818	6.65370E-09
889.27649	6.65776E-09
889.41480	6.66178E-09
889.55310	6.66577E-09
889.69141	6.66971E-09
889.82971	6.67360E-09
889.96802	6.67744E-09
890.10626	6.68122E-09
890.24457	6.68495E-09
890.38287	6.68861E-09
890.52118	6.69220E-09
890.65949	6.69572E-09
890.79779	6.69918E-09
890.93610	6.70255E-09
891.07440	6.70585E-09
891.21271	6.70906E-09
891.35101	6.71220E-09
891.48932	6.71525E-09
891.62763	6.71821E-09
891.76593	6.72108E-09
891.90424	6.72386E-09
892.04248	6.72655E-09
892.18079	6.72916E-09
892.31909	6.73166E-09
892.45740	6.73408E-09
892.59570	6.73641E-09
892.73401	6.73863E-09
892.87231	6.74077E-09
893.01062	6.74281E-09
893.14893	6.74476E-09
893.28723	6.74662E-09
893.42554	6.74838E-09
893.56384	6.75005E-09
893.70215	6.75164E-09
893.84039	6.75313E-09
893.97870	6.75453E-09
894.11700	6.75585E-09
894.25531	6.75709E-09
894.39362	6.75824E-09
894.53192	6.75932E-09
894.67023	6.76033E-09
894.80853	6.76126E-09
894.94684	6.76211E-09
895.08514	6.76290E-09
895.22345	6.76362E-09
895.36176	6.76428E-09
895.50006	6.76489E-09
895.63837	6.76543E-09
895.77661	6.76592E-09
895.91492	6.76637E-09
896.05322	6.76676E-09
896.19153	6.76711E-09
896.32983	6.76742E-09
896.46814	6.76768E-09
896.60645	6.76792E-09
896.74475	6.76812E-09
896.88306	6.76829E-09
897.02136	6.76845E-09
897.15967	6.76858E-09
897.29797	6.76869E-09
897.43628	6.76879E-09
897.57452	6.76888E-09
897.71283	6.76897E-09
897.85114	6.76904E-09
897.98944	6.76911E-09
898.12775	6.76918E-09
898.26605	6.76926E-09
898.40436	6.76935E-09
898.54266	6.76944E-09
898.68097	6.76955E-09
898.81928	6.76967E-09
898.95758	6.76981E-09
899.09589	6.76996E-09
899.23419	6.77014E-09
899.37250	6.77033E-09
899.51074	6.77055E-09
899.64905	6.77080E-09
899.78735	6.77108E-09
899.92566	6.77139E-09
900.06397	6.77173E-09
900.20227	6.77210E-09
900.34058	6.77251E-09
900.47888	6.77295E-09
900.61719	6.77343E-09
900.75549	6.77395E-09
900.89380	6.77451E-09
901.03210	6.77511E-09
901.17041	6.77574E-09
901.30866	6.77642E-09
901.44696	6.77714E-09
901.58527	6.77790E-09
901.72357	6.77871E-09
901.86188	6.77955E-09
902.00018	6.78044E-09
902.13849	6.78137E-09
902.27679	6.78234E-09
902.41510	6.78335E-09
902.55341	6.78441E-09
902.69171	6.78551E-09
902.83002	6.78664E-09
902.96832	6.78782E-09
903.10663	6.78903E-09
903.24487	6.79028E-09
903.38318	6.79156E-09
903.52148	6.79289E-09
903.65979	6.79425E-09
903.79810	6.79564E-09
903.93640	6.79706E-09
904.07471	6.79852E-09
904.21301	6.80001E-09
904.35132	6.80153E-09
904.48962	6.80308E-09
904.62793	6.80466E-09
904.76624	6.80627E-09
904.90454	6.80790E-09
905.04285	6.80955E-09
905.18109	6.81123E-09
905.31940	6.81293E-09
905.45770	6.81465E-09
905.59601	6.81639E-09
905.73431	6.81815E-09
905.87262	6.81994E-09
906.01093	6.82174E-09
906.14923	6.82356E-09
906.28754	6.82540E-09
906.42584	6.82725E-09
906.56415	6.82912E-09
906.70245	6.83099E-09
906.84076	6.83288E-09
906.97900	6.83478E-09
907.11731	6.83669E-09
907.25562	6.83862E-09
907.39392	6.84055E-09
907.53223	6.84250E-09
907.67053	6.84444E-09
907.80884	6.84640E-09
907.94714	6.84837E-09
908.08545	6.85034E-09
908.22376	6.85232E-09
908.36206	6.85431E-09
908.50037	6.85630E-09
908.63867	6.85831E-09
908.77698	6.86032E-09
908.91522	6.86233E-09
909.05353	6.86435E-09
909.19183	6.86638E-09
909.33014	6.86841E-09
909.46845	6.87046E-09
909.60675	6.87251E-09
909.74506	6.87457E-09
909.88336	6.87663E-09
910.02167	6.87870E-09
910.15997	6.88078E-09
910.29828	6.88286E-09
910.43658	6.88496E-09
910.57489	6.88706E-09
910.71314	6.88917E-09
910.85144	6.89128E-09
910.98975	6.89340E-09
911.12805	6.89553E-09
911.26636	6.89767E-09
911.40466	6.89981E-09
911.54297	6.90197E-09
911.68127	6.90413E-09
911.81958	6.90631E-09
911.95789	6.90848E-09
912.09619	6.91067E-09
912.23450	6.91287E-09
912.37280	6.91507E-09
912.51111	6.91728E-09
912.64935	6.91950E-09
912.78766	6.92172E-09
912.92596	6.92395E-09
913.06427	6.92619E-09
913.20258	6.92844E-09
913.34088	6.93069E-09
913.47919	6.93295E-09
913.61749	6.93521E-09
913.75580	6.93748E-09
913.89410	6.93975E-09
914.03241	6.94202E-09
914.17072	6.94430E-09
914.30902	6.94658E-09
914.44727	6.94886E-09
914.58557	6.95114E-09
914.72388	6.95342E-09
914.86218	6.95570E-09
915.00049	6.95798E-09
915.13879	6.96026E-09
915.27710	6.96253E-09
915.41541	6.96480E-09
915.55371	6.96707E-09
915.69202	6.96934E-09
915.83032	6.97159E-09
915.96863	6.97383E-09
916.10693	6.97607E-09
916.24524	6.97830E-09
916.38348	6.98052E-09
916.52179	6.98274E-09
916.66010	6.98494E-09
916.79840	6.98713E-09
916.93671	6.98931E-09
917.07501	6.99148E-09
917.21332	6.99363E-09
917.35162	6.99576E-09
917.48993	6.99788E-09
917.62824	6.99998E-09
917.76654	7.00207E-09
917.90485	7.00414E-09
918.04315	7.00620E-09
918.18146	7.00823E-09
918.31970	7.01025E-09
918.45801	7.01226E-09
918.59631	7.01425E-09
918.73462	7.01621E-09
918.87293	7.01816E-09
919.01123	7.02010E-09
919.14954	7.02201E-09
919.28784	7.02391E-09
919.42615	7.02579E-09
919.56445	7.02766E-09
919.70276	7.02951E-09
919.84106	7.03134E-09
919.97937	7.03316E-09
920.11762	7.03496E-09
920.25592	7.03674E-09
920.39423	7.03852E-09
920.53253	7.04028E-09
920.67084	7.04203E-09
920.80914	7.04376E-09
920.94745	7.04549E-09
921.08575	7.04721E-09
921.22406	7.04892E-09
921.36237	7.05062E-09
921.50067	7.05231E-09
921.63898	7.05400E-09
921.77728	7.05569E-09
921.91559	7.05737E-09
922.05383	7.05906E-09
922.19214	7.06074E-09
922.33044	7.06242E-09
922.46875	7.06411E-09
922.60706	7.06580E-09
922.74536	7.06749E-09
922.88367	7.06919E-09
923.02197	7.07090E-09
923.16028	7.07262E-09
923.29858	7.07434E-09
923.43689	7.07608E-09
923.57520	7.07784E-09
923.71350	7.07961E-09
923.85175	7.08139E-09
923.99005	7.08319E-09
924.12836	7.08502E-09
924.26666	7.08686E-09
924.40497	7.08872E-09
924.54327	7.09060E-09
924.68158	7.09251E-09
924.81989	7.09444E-09
924.95819	7.09640E-09
925.09650	7.09838E-09
925.23480	7.10040E-09
925.37311	7.10244E-09
925.51141	7.10450E-09
925.64972	7.10660E-09
925.78796	7.10873E-09
925.92627	7.11088E-09
926.06458	7.11307E-09
926.20288	7.11528E-09
926.34119	7.11753E-09
926.47949	7.11980E-09
926.61780	7.12211E-09
926.75610	7.12443E-09
926.89441	7.12680E-09
927.03272	7.12918E-09
927.17102	7.13160E-09
927.30933	7.13404E-09
927.44763	7.13650E-09
927.58588	7.13899E-09
927.72418	7.14151E-09
927.86249	7.14404E-09
928.00079	7.14659E-09
928.13910	7.14917E-09
928.27741	7.15177E-09
928.41571	7.15438E-09
928.55402	7.15700E-09
928.69232	7.15964E-09
928.83063	7.16229E-09
928.96893	7.16495E-09
929.10724	7.16761E-09
929.24554	7.17027E-09
929.38385	7.17294E-09
929.52210	7.17561E-09
929.66040	7.17827E-09
929.79871	7.18095E-09
929.93701	7.18360E-09
930.07532	7.18625E-09
930.21362	7.18889E-09
930.35193	7.19152E-09
930.49023	7.19414E-09
930.62854	7.19674E-09
930.76685	7.19931E-09
930.90515	7.20187E-09
931.04346	7.20441E-09
931.18176	7.20692E-09
931.32001	7.20941E-09
931.45831	7.21188E-09
931.59662	7.21431E-09
931.73492	7.21671E-09
931.87323	7.21908E-09
932.01154	7.22142E-09
932.14984	7.22372E-09
932.28815	7.22599E-09
932.42645	7.22822E-09
932.56476	7.23041E-09
932.70306	7.23256E-09
932.84137	7.23468E-09
932.97968	7.23676E-09
933.11798	7.23879E-09
933.25623	7.24080E-09
933.39453	7.24277E-09
933.53284	7.24469E-09
933.67114	7.24657E-09
933.80945	7.24843E-09
933.94775	7.25024E-09
934.08606	7.25202E-09
934.22437	7.25376E-09
934.36267	7.25546E-09
934.50098	7.25714E-09
934.63928	7.25878E-09
934.77759	7.26039E-09
934.91589	7.26198E-09
935.05420	7.26354E-09
935.19244	7.26507E-09
935.33075	7.26659E-09
935.46906	7.26808E-09
935.60736	7.26956E-09
935.74567	7.27101E-09
935.88397	7.27247E-09
936.02228	7.27391E-09
936.16058	7.27535E-09
936.29889	7.27678E-09
936.43720	7.27821E-09
936.57550	7.27965E-09
936.71381	7.28109E-09
936.85211	7.28254E-09
936.99036	7.28400E-09
937.12866	7.28548E-09
937.26697	7.28698E-09
937.40527	7.28850E-09
937.54358	7.29005E-09
937.68189	7.29162E-09
937.82019	7.29323E-09
937.95850	7.29487E-09
938.09680	7.29656E-09
938.23511	7.29828E-09
938.37341	7.30005E-09
938.51172	7.30186E-09
938.65002	7.30372E-09
938.78833	7.30564E-09
938.92658	7.30761E-09
939.06488	7.30964E-09
939.20319	7.31173E-09
939.34149	7.31388E-09
939.47980	7.31609E-09
939.61810	7.31838E-09
939.75641	7.32072E-09
939.89471	7.32314E-09
940.03302	7.32564E-09
940.17133	7.32820E-09
940.30963	7.33083E-09
940.44794	7.33354E-09
940.58624	7.33632E-09
940.72449	7.33917E-09
940.86279	7.34210E-09
941.00110	7.34509E-09
941.13940	7.34817E-09
941.27771	7.35131E-09
941.41602	7.35452E-09
941.55432	7.35779E-09
941.69263	7.36114E-09
941.83093	7.36455E-09
941.96924	7.36802E-09
942.10754	7.37154E-09
942.24585	7.37512E-09
942.38416	7.37875E-09
942.52246	7.38244E-09
942.66071	7.38616E-09
942.79901	7.38993E-09
942.93732	7.39374E-09
943.07562	7.39758E-09
943.21393	7.40144E-09
943.35223	7.40533E-09
943.49054	7.40925E-09
943.62885	7.41317E-09
943.76715	7.41710E-09
943.90546	7.42103E-09
944.04376	7.42495E-09
944.18207	7.42887E-09
944.32037	7.43278E-09
944.45862	7.43666E-09
944.59692	7.44051E-09
944.73523	7.44433E-09
944.87354	7.44810E-09
945.01184	7.45182E-09
945.15015	7.45549E-09
945.28845	7.45911E-09
945.42676	7.46265E-09
945.56506	7.46612E-09
945.70337	7.46952E-09
945.84168	7.47283E-09
945.97998	7.47606E-09
946.11829	7.47918E-09
946.25659	7.48220E-09
946.39484	7.48511E-09
946.53314	7.48792E-09
946.67145	7.49061E-09
946.80975	7.49317E-09
946.94806	7.49561E-09
947.08637	7.49793E-09
947.22467	7.50010E-09
947.36298	7.50214E-09
947.50128	7.50404E-09
947.63959	7.50580E-09
947.77789	7.50742E-09
947.91620	7.50889E-09
948.05450	7.51021E-09
948.19281	7.51138E-09
948.33106	7.51240E-09
948.46936	7.51327E-09
948.60767	7.51399E-09
948.74597	7.51456E-09
948.88428	7.51497E-09
949.02258	7.51523E-09
949.16089	7.51535E-09
949.29919	7.51532E-09
949.43750	7.51515E-09
949.57581	7.51484E-09
949.71411	7.51439E-09
949.85242	7.51381E-09
949.99072	7.51309E-09
950.12897	7.51224E-09
950.26727	7.51127E-09
950.40558	7.51018E-09
950.54388	7.50897E-09
950.68219	7.50766E-09
950.82050	7.50625E-09
950.95880	7.50473E-09
951.09711	7.50313E-09
951.23541	7.50143E-09
951.37372	7.49966E-09
951.51202	7.49781E-09
951.65033	7.49590E-09
951.78864	7.49393E-09
951.92694	7.49190E-09
952.06519	7.48983E-09
952.20349	7.48773E-09
952.34180	7.48559E-09
952.48010	7.48344E-09
952.61841	7.48126E-09
952.75671	7.47908E-09
952.89502	7.47690E-09
953.03333	7.47472E-09
953.17163	7.47257E-09
953.30994	7.47043E-09
953.44824	7.46832E-09
953.58655	7.46626E-09
953.72485	7.46424E-09
953.86310	7.46228E-09
954.00140	7.46037E-09
954.13971	7.45855E-09
954.27802	7.45680E-09
954.41632	7.45514E-09
954.55463	7.45357E-09
954.69293	7.45209E-09
954.83124	7.45073E-09
954.96954	7.44947E-09
955.10785	7.44833E-09
955.24616	7.44732E-09
955.38446	7.44644E-09
955.52277	7.44569E-09
955.66107	7.44509E-09
955.79932	7.44464E-09
955.93762	7.44435E-09
956.07593	7.44421E-09
956.21423	7.44423E-09
956.35254	7.44442E-09
956.49085	7.44479E-09
956.62915	7.44532E-09
956.76746	7.44603E-09
956.90576	7.44693E-09
957.04407	7.44802E-09
957.18237	7.44928E-09
957.32068	7.45073E-09
957.45898	7.45238E-09
957.59723	7.45421E-09
957.73554	7.45624E-09
957.87384	7.45845E-09
958.01215	7.46087E-09
958.15045	7.46347E-09
958.28876	7.46626E-09
958.42706	7.46924E-09
958.56537	7.47241E-09
958.70367	7.47577E-09
958.84198	7.47931E-09
958.98029	7.48303E-09
959.11859	7.48693E-09
959.25690	7.49101E-09
959.39520	7.49525E-09
959.53345	7.49967E-09
959.67175	7.50425E-09
959.81006	7.50897E-09
959.94836	7.51386E-09
960.08667	7.51888E-09
960.22498	7.52405E-09
960.36328	7.52935E-09
960.50159	7.53477E-09
960.63989	7.54031E-09
960.77820	7.54597E-09
960.91650	7.55173E-09
961.05481	7.55759E-09
961.19312	7.56354E-09
961.33136	7.56956E-09
961.46967	7.57566E-09
961.60797	7.58183E-09
961.74628	7.58804E-09
961.88458	7.59430E-09
962.02289	7.60060E-09
962.16119	7.60692E-09
962.29950	7.61327E-09
962.43781	7.61963E-09
962.57611	7.62598E-09
962.71442	7.63232E-09
962.85272	7.63865E-09
962.99103	7.64494E-09
963.12933	7.65121E-09
963.26758	7.65742E-09
963.40588	7.66358E-09
963.54419	7.66968E-09
963.68250	7.67571E-09
963.82080	7.68166E-09
963.95911	7.68753E-09
964.09741	7.69330E-09
964.23572	7.69897E-09
964.37402	7.70454E-09
964.51233	7.70999E-09
964.65064	7.71531E-09
964.78894	7.72051E-09
964.92725	7.72558E-09
965.06555	7.73050E-09
965.20380	7.73529E-09
965.34210	7.73992E-09
965.48041	7.74441E-09
965.61871	7.74874E-09
965.75702	7.75292E-09
965.89533	7.75693E-09
966.03363	7.76078E-09
966.17194	7.76447E-09
966.31024	7.76800E-09
966.44855	7.77135E-09
966.58685	7.77454E-09
966.72516	7.77757E-09
966.86346	7.78043E-09
967.00171	7.78313E-09
967.14002	7.78566E-09
967.27832	7.78803E-09
967.41663	7.79025E-09
967.55493	7.79232E-09
967.69324	7.79423E-09
967.83154	7.79600E-09
967.96985	7.79762E-09
968.10815	7.79910E-09
968.24646	7.80046E-09
968.38477	7.80168E-09
968.52307	7.80278E-09
968.66138	7.80375E-09
968.79968	7.80462E-09
968.93793	7.80538E-09
969.07623	7.80605E-09
969.21454	7.80662E-09
969.35284	7.80710E-09
969.49115	7.80751E-09
969.62946	7.80783E-09
969.76776	7.80810E-09
969.90607	7.80831E-09
970.04437	7.80847E-09
970.18268	7.80858E-09
970.32098	7.80865E-09
970.45929	7.80869E-09
970.59760	7.80871E-09
970.73584	7.80872E-09
970.87415	7.80873E-09
971.01245	7.80873E-09
971.15076	7.80873E-09
971.28906	7.80875E-09
971.42737	7.80879E-09
971.56567	7.80887E-09
971.70398	7.80897E-09
971.84229	7.80912E-09
971.98059	7.80931E-09
972.11890	7.80954E-09
972.25720	7.80984E-09
972.39551	7.81020E-09
972.53381	7.81062E-09
972.67206	7.81112E-09
972.81036	7.81169E-09
972.94867	7.81235E-09
973.08698	7.81308E-09
973.22528	7.81391E-09
973.36359	7.81484E-09
973.50189	7.81585E-09
973.64020	7.81697E-09
973.77850	7.81818E-09
973.91681	7.81951E-09
974.05512	7.82093E-09
974.19342	7.82246E-09
974.33173	7.82409E-09
974.46997	7.82583E-09
974.60828	7.82767E-09
974.74658	7.82962E-09
974.88489	7.83169E-09
975.02319	7.83385E-09
975.16150	7.83613E-09
975.29981	7.83851E-09
975.43811	7.84100E-09
975.57642	7.84358E-09
975.71472	7.84626E-09
975.85303	7.84904E-09
975.99133	7.85191E-09
976.12964	7.85487E-09
976.26794	7.85792E-09
976.40619	7.86106E-09
976.54450	7.86428E-09
976.68280	7.86757E-09
976.82111	7.87094E-09
976.95941	7.87437E-09
977.09772	7.87788E-09
977.23602	7.88144E-09
977.37433	7.88506E-09
977.51263	7.88873E-09
977.65094	7.89245E-09
977.78925	7.89622E-09
977.92755	7.90002E-09
978.06586	7.90386E-09
978.20416	7.90773E-09
978.34241	7.91162E-09
978.48071	7.91553E-09
978.61902	7.91946E-09
978.75732	7.92339E-09
978.89563	7.92734E-09
979.03394	7.93128E-09
979.17224	7.93523E-09
979.31055	7.93917E-09
979.44885	7.94311E-09
979.58716	7.94703E-09
979.72546	7.95093E-09
979.86377	7.95481E-09
980.00208	7.95868E-09
980.14032	7.96252E-09
980.27863	7.96632E-09
980.41693	7.97010E-09
980.55524	7.97384E-09
980.69354	7.97755E-09
980.83185	7.98122E-09
980.97015	7.98485E-09
981.10846	7.98844E-09
981.24677	7.99200E-09
981.38507	7.99550E-09
981.52338	7.99897E-09
981.66168	8.00239E-09
981.79999	8.00578E-09
981.93829	8.00912E-09
982.07654	8.01242E-09
982.21484	8.01569E-09
982.35315	8.01891E-09
982.49146	8.02209E-09
982.62976	8.02524E-09
982.76807	8.02836E-09
982.90637	8.03144E-09
983.04468	8.03449E-09
983.18298	8.03752E-09
983.32129	8.04052E-09
983.45960	8.04351E-09
983.59790	8.04647E-09
983.73621	8.04942E-09
983.87445	8.05237E-09
984.01276	8.05530E-09
984.15106	8.05824E-09
984.28937	8.06118E-09
984.42767	8.06414E-09
984.56598	8.06710E-09
984.70429	8.07008E-09
984.84259	8.07307E-09
984.98090	8.07610E-09
985.11920	8.07916E-09
985.25751	8.08225E-09
985.39581	8.08539E-09
985.53412	8.08856E-09
985.67242	8.09179E-09
985.81067	8.09507E-09
985.94898	8.09841E-09
986.08728	8.10181E-09
986.22559	8.10528E-09
986.36389	8.10882E-09
986.50220	8.11244E-09
986.64050	8.11613E-09
986.77881	8.11991E-09
986.91711	8.12377E-09
987.05542	8.12773E-09
987.19373	8.13178E-09
987.33203	8.13593E-09
987.47034	8.14017E-09
987.60858	8.14451E-09
987.74689	8.14896E-09
987.88519	8.15350E-09
988.02350	8.15817E-09
988.16180	8.16293E-09
988.30011	8.16780E-09
988.43842	8.17277E-09
988.57672	8.17786E-09
988.71503	8.18306E-09
988.85333	8.18836E-09
988.99164	8.19376E-09
989.12994	8.19927E-09
989.26825	8.20489E-09
989.40656	8.21060E-09
989.54480	8.21641E-09
989.68311	8.22231E-09
989.82141	8.22831E-09
989.95972	8.23439E-09
990.09802	8.24056E-09
990.23633	8.24681E-09
990.37463	8.25314E-09
990.51294	8.25954E-09
990.65125	8.26600E-09
990.78955	8.27252E-09
990.92786	8.27910E-09
991.06616	8.28572E-09
991.20447	8.29239E-09
991.34277	8.29909E-09
991.48102	8.30583E-09
991.61932	8.31258E-09
991.75763	8.31935E-09
991.89594	8.32613E-09
992.03424	8.33291E-09
992.17255	8.33968E-09
992.31085	8.34644E-09
992.44916	8.35318E-09
992.58746	8.35988E-09
992.72577	8.36654E-09
992.86408	8.37316E-09
993.00238	8.37972E-09
993.14069	8.38622E-09
993.27893	8.39265E-09
993.41724	8.39901E-09
993.55554	8.40528E-09
993.69385	8.41145E-09
993.83215	8.41754E-09
993.97046	8.42352E-09
994.10877	8.42939E-09
994.24707	8.43514E-09
994.38538	8.44077E-09
994.52368	8.44627E-09
994.66199	8.45164E-09
994.80029	8.45686E-09
994.93860	8.46194E-09
995.07690	8.46686E-09
995.21515	8.47164E-09
995.35346	8.47626E-09
995.49176	8.48072E-09
995.63007	8.48502E-09
995.76837	8.48915E-09
995.90668	8.49312E-09
996.04498	8.49691E-09
996.18329	8.50054E-09
996.32159	8.50400E-09
996.45990	8.50730E-09
996.59821	8.51041E-09
996.73651	8.51337E-09
996.87482	8.51615E-09
997.01306	8.51878E-09
997.15137	8.52124E-09
997.28967	8.52354E-09
997.42798	8.52569E-09
997.56628	8.52769E-09
997.70459	8.52955E-09
997.84290	8.53126E-09
997.98120	8.53283E-09
998.11951	8.53428E-09
998.25781	8.53559E-09
998.39612	8.53679E-09
998.53442	8.53788E-09
998.67273	8.53886E-09
998.81104	8.53975E-09
998.94928	8.54055E-09
999.08759	8.54127E-09
999.22589	8.54191E-09
999.36420	8.54248E-09
999.50250	8.54301E-09
999.64081	8.54349E-09
999.77911	8.54394E-09
999.91742	8.54436E-09
1000.05573	8.54477E-09
1000.19403	8.54517E-09
1000.33234	8.54558E-09
1000.47064	8.54600E-09
1000.60895	8.54645E-09
1000.74719	8.54693E-09
1000.88550	8.54745E-09
1001.02380	8.54802E-09
1001.16211	8.54866E-09
1001.30042	8.54937E-09
1001.43872	8.55017E-09
1001.57703	8.55106E-09
1001.71533	8.55206E-09
1001.85364	8.55318E-09
1001.99194	8.55441E-09
1002.13025	8.55578E-09
1002.26856	8.55730E-09
1002.40686	8.55896E-09
1002.54517	8.56078E-09
1002.68341	8.56277E-09
1002.82172	8.56494E-09
1002.96002	8.56729E-09
1003.09833	8.56982E-09
1003.23663	8.57255E-09
1003.37494	8.57549E-09
1003.51325	8.57862E-09
1003.65155	8.58198E-09
1003.78986	8.58555E-09
1003.92816	8.58934E-09
1004.06647	8.59336E-09
1004.20477	8.59761E-09
1004.34308	8.60208E-09
1004.48132	8.60679E-09
1004.61963	8.61175E-09
1004.75794	8.61693E-09
1004.89624	8.62235E-09
1005.03455	8.62801E-09
1005.17285	8.63392E-09
1005.31116	8.64006E-09
1005.44946	8.64644E-09
1005.58777	8.65306E-09
1005.72607	8.65991E-09
1005.86438	8.66699E-09
1006.00269	8.67430E-09
1006.14099	8.68184E-09
1006.27930	8.68959E-09
1006.41754	8.69757E-09
1006.55585	8.70576E-09
1006.69415	8.71416E-09
1006.83246	8.72277E-09
1006.97076	8.73157E-09
1007.10907	8.74056E-09
1007.24738	8.74972E-09
1007.38568	8.75908E-09
1007.52399	8.76860E-09
1007.66229	8.77828E-09
1007.80060	8.78811E-09
1007.93890	8.79809E-09
1008.07721	8.80821E-09
1008.21552	8.81846E-09
1008.35376	8.82881E-09
1008.49207	8.83930E-09
1008.63037	8.84988E-09
1008.76868	8.86056E-09
1008.90698	8.87133E-09
1009.04529	8.88217E-09
1009.18359	8.89309E-09
1009.32190	8.90406E-09
1009.46021	8.91508E-09
1009.59851	8.92614E-09
1009.73682	8.93724E-09
1009.87512	8.94835E-09
1010.01343	8.95949E-09
1010.15167	8.97063E-09
1010.28998	8.98177E-09
1010.42828	8.99290E-09
1010.56659	9.00402E-09
1010.70490	9.01512E-09
1010.84320	9.02619E-09
1010.98151	9.03722E-09
1011.11981	9.04821E-09
1011.25812	9.05914E-09
1011.39642	9.07003E-09
1011.53473	9.08087E-09
1011.67304	9.09163E-09
1011.81134	9.10233E-09
1011.94965	9.11295E-09
1012.08789	9.12350E-09
1012.22620	9.13397E-09
1012.36450	9.14435E-09
1012.50281	9.15465E-09
1012.64111	9.16486E-09
1012.77942	9.17497E-09
1012.91773	9.18500E-09
1013.05603	9.19494E-09
1013.19434	9.20478E-09
1013.33264	9.21453E-09
1013.47095	9.22419E-09
1013.60925	9.23376E-09
1013.74756	9.24323E-09
1013.88580	9.25262E-09
1014.02411	9.26192E-09
1014.16242	9.27114E-09
1014.30072	9.28027E-09
1014.43903	9.28933E-09
1014.57733	9.29831E-09
1014.71564	9.30723E-09
1014.85394	9.31609E-09
1014.99225	9.32488E-09
1015.13055	9.33362E-09
1015.26886	9.34230E-09
1015.40717	9.35094E-09
1015.54547	9.35954E-09
1015.68378	9.36811E-09
1015.82202	9.37664E-09
1015.96033	9.38515E-09
1016.09863	9.39364E-09
1016.23694	9.40212E-09
1016.37524	9.41060E-09
1016.51355	9.41908E-09
1016.65186	9.42757E-09
1016.79016	9.43607E-09
1016.92847	9.44460E-09
1017.06677	9.45315E-09
1017.20508	9.46174E-09
1017.34338	9.47036E-09
1017.48169	9.47904E-09
1017.61993	9.48777E-09
1017.75824	9.49655E-09
1017.89655	9.50540E-09
1018.03485	9.51432E-09
1018.17316	9.52332E-09
1018.31146	9.53239E-09
1018.44977	9.54154E-09
1018.58807	9.55078E-09
1018.72638	9.56011E-09
1018.86469	9.56953E-09
1019.00299	9.57904E-09
1019.14130	9.58866E-09
1019.27960	9.59837E-09
1019.41791	9.60818E-09
1019.55615	9.61812E-09
1019.69446	9.62814E-09
1019.83276	9.63828E-09
1019.97107	9.64852E-09
1020.10938	9.65886E-09
1020.24768	9.66931E-09
1020.38599	9.67985E-09
1020.52429	9.69050E-09
1020.66260	9.70124E-09
1020.80090	9.71208E-09
1020.93921	9.72301E-09
1021.07752	9.73402E-09
1021.21582	9.74512E-09
1021.35413	9.75629E-09
1021.49237	9.76753E-09
1021.63068	9.77884E-09
1021.76898	9.79022E-09
1021.90729	9.80163E-09
1022.04559	9.81309E-09
1022.18390	9.82459E-09
1022.32221	9.83611E-09
1022.46051	9.84766E-09
1022.59882	9.85922E-09
1022.73712	9.87076E-09
1022.87543	9.88230E-09
1023.01373	9.89382E-09
1023.15204	9.90531E-09
1023.29028	9.91677E-09
1023.42859	9.92818E-09
1023.56690	9.93952E-09
1023.70520	9.95080E-09
1023.84351	9.96200E-09
1023.98181	9.97310E-09
1024.12012	9.98412E-09
1024.25842	9.99500E-09
1024.39673	1.00058E-08
1024.53503	1.00164E-08
1024.67334	1.00269E-08
1024.81165	1.00372E-08
1024.94995	1.00474E-08
1025.08826	1.00574E-08
1025.22656	1.00672E-08
1025.36487	1.00769E-08
1025.50317	1.00863E-08
1025.64148	1.00955E-08
1025.77979	1.01045E-08
1025.91809	1.01132E-08
1026.05627	1.01218E-08
1026.19458	1.01301E-08
1026.33289	1.01381E-08
1026.47119	1.01460E-08
1026.60950	1.01535E-08
1026.74780	1.01608E-08
1026.88611	1.01679E-08
1027.02441	1.01747E-08
1027.16272	1.01812E-08
1027.30103	1.01875E-08
1027.43933	1.01935E-08
1027.57764	1.01992E-08
1027.71594	1.02046E-08
1027.85425	1.02098E-08
1027.99255	1.02148E-08
1028.13086	1.02194E-08
1028.26917	1.02239E-08
1028.40747	1.02280E-08
1028.54578	1.02319E-08
1028.68408	1.02356E-08
1028.82239	1.02390E-08
1028.96069	1.02422E-08
1029.09900	1.02452E-08
1029.23731	1.02480E-08
1029.37561	1.02505E-08
1029.51392	1.02528E-08
1029.65222	1.02550E-08
1029.79053	1.02570E-08
1029.92871	1.02587E-08
1030.06702	1.02603E-08
1030.20532	1.02618E-08
1030.34363	1.02631E-08
1030.48193	1.02643E-08
1030.62024	1.02654E-08
1030.75855	1.02663E-08
1030.89685	1.02672E-08
1031.03516	1.02680E-08
1031.17346	1.02687E-08
1031.31177	1.02693E-08
1031.45007	1.02699E-08
1031.58838	1.02704E-08
1031.72669	1.02710E-08
1031.86499	1.02714E-08
1032.00330	1.02719E-08
1032.14160	1.02724E-08
1032.27991	1.02730E-08
1032.41821	1.02735E-08
1032.55652	1.02741E-08
1032.69482	1.02748E-08
1032.83313	1.02755E-08
1032.97144	1.02763E-08
1033.10974	1.02771E-08
1033.24805	1.02781E-08
1033.38635	1.02792E-08
1033.52466	1.02803E-08
1033.66284	1.02816E-08
1033.80115	1.02830E-08
1033.93945	1.02846E-08
1034.07776	1.02863E-08
1034.21606	1.02881E-08
1034.35437	1.02901E-08
1034.49268	1.02922E-08
1034.63098	1.02945E-08
1034.76929	1.02970E-08
1034.90759	1.02996E-08
1035.04590	1.03024E-08
1035.18420	1.03053E-08
1035.32251	1.03084E-08
1035.46082	1.03117E-08
1035.59912	1.03152E-08
1035.73743	1.03188E-08
1035.87573	1.03226E-08
1036.01404	1.03266E-08
1036.15234	1.03307E-08
1036.29065	1.03350E-08
1036.42896	1.03394E-08
1036.56726	1.03440E-08
1036.70557	1.03487E-08
1036.84387	1.03536E-08
1036.98218	1.03585E-08
1037.12048	1.03636E-08
1037.25879	1.03688E-08
1037.39697	1.03741E-08
1037.53528	1.03795E-08
1037.67358	1.03850E-08
1037.81189	1.03906E-08
1037.95020	1.03962E-08
1038.08850	1.04018E-08
1038.22681	1.04075E-08
1038.36511	1.04133E-08
1038.50342	1.04190E-08
1038.64172	1.04248E-08
1038.78003	1.04306E-08
1038.91834	1.04363E-08
1039.05664	1.04420E-08
1039.19495	1.04477E-08
1039.33325	1.04533E-08
1039.47156	1.04588E-08
1039.60986	1.04643E-08
1039.74817	1.04696E-08
1039.88648	1.04749E-08
1040.02478	1.04800E-08
1040.16309	1.04850E-08
1040.30139	1.04899E-08
1040.43970	1.04947E-08
1040.57800	1.04992E-08
1040.71631	1.05036E-08
1040.85461	1.05078E-08
1040.99292	1.05119E-08
1041.13110	1.05157E-08
1041.26941	1.05193E-08
1041.40772	1.05227E-08
1041.54602	1.05259E-08
1041.68433	1.05289E-08
1041.82263	1.05316E-08
1041.96094	1.05341E-08
1042.09924	1.05364E-08
1042.23755	1.05384E-08
1042.37585	1.05402E-08
1042.51416	1.05417E-08
1042.65247	1.05430E-08
1042.79077	1.05440E-08
1042.92908	1.05448E-08
1043.06738	1.05453E-08
1043.20569	1.05456E-08
1043.34399	1.05457E-08
1043.48230	1.05455E-08
1043.62061	1.05451E-08
1043.75891	1.05444E-08
1043.89722	1.05436E-08
1044.03552	1.05425E-08
1044.17383	1.05412E-08
1044.31213	1.05398E-08
1044.45044	1.05381E-08
1044.58875	1.05363E-08
1044.72705	1.05343E-08
1044.86523	1.05321E-08
1045.00354	1.05298E-08
1045.14185	1.05274E-08
1045.28015	1.05249E-08
1045.41846	1.05222E-08
1045.55676	1.05195E-08
1045.69507	1.05167E-08
1045.83337	1.05138E-08
1045.97168	1.05108E-08
1046.10999	1.05079E-08
1046.24829	1.05049E-08
1046.38660	1.05019E-08
1046.52490	1.04989E-08
1046.66321	1.04959E-08
1046.80151	1.04930E-08
1046.93982	1.04901E-08
1047.07813	1.04873E-08
1047.21643	1.04846E-08
1047.35474	1.04819E-08
1047.49304	1.04794E-08
1047.63135	1.04770E-08
1047.76965	1.04747E-08
1047.90796	1.04726E-08
1048.04627	1.04706E-08
1048.18457	1.04688E-08
1048.32288	1.04673E-08
1048.46118	1.04659E-08
1048.59937	1.04647E-08
1048.73767	1.04637E-08
1048.87598	1.04630E-08
1049.01428	1.04625E-08
1049.15259	1.04622E-08
1049.29089	1.04622E-08
1049.42920	1.04625E-08
1049.56751	1.04630E-08
1049.70581	1.04638E-08
1049.84412	1.04648E-08
1049.98242	1.04662E-08
1050.12073	1.04678E-08
1050.25903	1.04697E-08
1050.39734	1.04719E-08
1050.53565	1.04744E-08
1050.67395	1.04772E-08
1050.81226	1.04802E-08
1050.95056	1.04835E-08
1051.08887	1.04872E-08
1051.22717	1.04910E-08
1051.36548	1.04952E-08
1051.50378	1.04996E-08
1051.64209	1.05043E-08
1051.78040	1.05092E-08
1051.91870	1.05144E-08
1052.05701	1.05198E-08
1052.19531	1.05254E-08
1052.33350	1.05313E-08
1052.47180	1.05373E-08
1052.61011	1.05436E-08
1052.74841	1.05500E-08
1052.88672	1.05567E-08
1053.02502	1.05634E-08
1053.16333	1.05704E-08
1053.30164	1.05774E-08
1053.43994	1.05846E-08
1053.57825	1.05919E-08
1053.71655	1.05993E-08
1053.85486	1.06067E-08
1053.99316	1.06143E-08
1054.13147	1.06218E-08
1054.26978	1.06294E-08
1054.40808	1.06371E-08
1054.54639	1.06447E-08
1054.68469	1.06523E-08
1054.82300	1.06599E-08
1054.96130	1.06674E-08
1055.09961	1.06749E-08
1055.23792	1.06823E-08
1055.37622	1.06896E-08
1055.51453	1.06968E-08
1055.65283	1.07039E-08
1055.79114	1.07108E-08
1055.92944	1.07176E-08
1056.06763	1.07243E-08
1056.20593	1.07307E-08
1056.34424	1.07370E-08
1056.48254	1.07431E-08
1056.62085	1.07490E-08
1056.75916	1.07546E-08
1056.89746	1.07601E-08
1057.03577	1.07653E-08
1057.17407	1.07703E-08
1057.31238	1.07751E-08
1057.45068	1.07796E-08
1057.58899	1.07838E-08
1057.72730	1.07878E-08
1057.86560	1.07915E-08
1058.00391	1.07949E-08
1058.14221	1.07981E-08
1058.28052	1.08010E-08
1058.41882	1.08037E-08
1058.55713	1.08061E-08
1058.69544	1.08082E-08
1058.83374	1.08101E-08
1058.97205	1.08117E-08
1059.11035	1.08131E-08
1059.24866	1.08142E-08
1059.38696	1.08152E-08
1059.52527	1.08158E-08
1059.66357	1.08163E-08
1059.80188	1.08166E-08
1059.94006	1.08167E-08
1060.07837	1.08166E-08
1060.21668	1.08163E-08
1060.35498	1.08159E-08
1060.49329	1.08154E-08
1060.63159	1.08147E-08
1060.76990	1.08139E-08
1060.90820	1.08130E-08
1061.04651	1.08120E-08
1061.18481	1.08110E-08
1061.32312	1.08099E-08
1061.46143	1.08088E-08
1061.59973	1.08077E-08
1061.73804	1.08066E-08
1061.87634	1.08055E-08
1062.01465	1.08045E-08
1062.15295	1.08035E-08
1062.29126	1.08027E-08
1062.42957	1.08019E-08
1062.56787	1.08012E-08
1062.70618	1.08006E-08
1062.84448	1.08002E-08
1062.98279	1.08000E-08
1063.12109	1.07999E-08
1063.25940	1.08001E-08
1063.39771	1.08004E-08
1063.53601	1.08010E-08
1063.67419	1.08019E-08
1063.81250	1.08029E-08
1063.95081	1.08043E-08
1064.08911	1.08059E-08
1064.22742	1.08078E-08
1064.36572	1.08100E-08
1064.50403	1.08126E-08
1064.64233	1.08154E-08
1064.78064	1.08186E-08
1064.91895	1.08221E-08
1065.05725	1.08259E-08
1065.19556	1.08301E-08
1065.33386	1.08347E-08
1065.47217	1.08396E-08
1065.61047	1.08448E-08
1065.74878	1.08504E-08
1065.88709	1.08564E-08
1066.02539	1.08627E-08
1066.16370	1.08693E-08
1066.30200	1.08764E-08
1066.44031	1.08837E-08
1066.57861	1.08914E-08
1066.71692	1.08994E-08
1066.85523	1.09078E-08
1066.99353	1.09164E-08
1067.13184	1.09254E-08
1067.27014	1.09347E-08
1067.40833	1.09442E-08
1067.54663	1.09541E-08
1067.68494	1.09642E-08
1067.82324	1.09745E-08
1067.96155	1.09851E-08
1068.09985	1.09959E-08
1068.23816	1.10069E-08
1068.37647	1.10181E-08
1068.51477	1.10295E-08
1068.65308	1.10410E-08
1068.79138	1.10527E-08
1068.92969	1.10645E-08
1069.06799	1.10764E-08
1069.20630	1.10885E-08
1069.34460	1.11005E-08
1069.48291	1.11127E-08
1069.62122	1.11248E-08
1069.75952	1.11370E-08
1069.89783	1.11492E-08
1070.03613	1.11614E-08
1070.17444	1.11735E-08
1070.31274	1.11855E-08
1070.45105	1.11975E-08
1070.58936	1.12094E-08
1070.72766	1.12211E-08
1070.86597	1.12328E-08
1071.00427	1.12443E-08
1071.14246	1.12556E-08
1071.28076	1.12667E-08
1071.41907	1.12776E-08
1071.55737	1.12883E-08
1071.69568	1.12988E-08
1071.83398	1.13090E-08
1071.97229	1.13189E-08
1072.11060	1.13286E-08
1072.24890	1.13380E-08
1072.38721	1.13471E-08
1072.52551	1.13559E-08
1072.66382	1.13644E-08
1072.80212	1.13726E-08
1072.94043	1.13804E-08
1073.07874	1.13879E-08
1073.21704	1.13951E-08
1073.35535	1.14019E-08
1073.49365	1.14083E-08
1073.63196	1.14144E-08
1073.77026	1.14202E-08
1073.90857	1.14256E-08
1074.04688	1.14307E-08
1074.18518	1.14354E-08
1074.32349	1.14398E-08
1074.46179	1.14439E-08
1074.60010	1.14476E-08
1074.73840	1.14511E-08
1074.87659	1.14542E-08
1075.01489	1.14570E-08
1075.15320	1.14596E-08
1075.29150	1.14619E-08
1075.42981	1.14639E-08
1075.56812	1.14657E-08
1075.70642	1.14672E-08
1075.84473	1.14686E-08
1075.98303	1.14698E-08
1076.12134	1.14708E-08
1076.25964	1.14716E-08
1076.39795	1.14724E-08
1076.53626	1.14730E-08
1076.67456	1.14736E-08
1076.81287	1.14741E-08
1076.95117	1.14746E-08
1077.08948	1.14750E-08
1077.22778	1.14755E-08
1077.36609	1.14760E-08
1077.50440	1.14766E-08
1077.64270	1.14773E-08
1077.78101	1.14781E-08
1077.91931	1.14790E-08
1078.05762	1.14801E-08
1078.19592	1.14814E-08
1078.33423	1.14829E-08
1078.47253	1.14846E-08
1078.61072	1.14866E-08
1078.74902	1.14889E-08
1078.88733	1.14915E-08
1079.02564	1.14944E-08
1079.16394	1.14977E-08
1079.30225	1.15013E-08
1079.44055	1.15054E-08
1079.57886	1.15098E-08
1079.71716	1.15147E-08
1079.85547	1.15200E-08
1079.99377	1.15257E-08
1080.13208	1.15320E-08
1080.27039	1.15387E-08
1080.40869	1.15459E-08
1080.54700	1.15537E-08
1080.68530	1.15619E-08
1080.82361	1.15707E-08
1080.96191	1.15801E-08
1081.10022	1.15900E-08
1081.23853	1.16004E-08
1081.37683	1.16115E-08
1081.51514	1.16230E-08
1081.65344	1.16351E-08
1081.79175	1.16478E-08
1081.93005	1.16610E-08
1082.06836	1.16748E-08
1082.20667	1.16890E-08
1082.34485	1.17039E-08
1082.48315	1.17192E-08
1082.62146	1.17351E-08
1082.75977	1.17514E-08
1082.89807	1.17682E-08
1083.03638	1.17855E-08
1083.17468	1.18032E-08
1083.31299	1.18214E-08
1083.45129	1.18399E-08
1083.58960	1.18589E-08
1083.72791	1.18783E-08
1083.86621	1.18980E-08
1084.00452	1.19180E-08
1084.14282	1.19383E-08
1084.28113	1.19588E-08
1084.41943	1.19797E-08
1084.55774	1.20007E-08
1084.69605	1.20220E-08
1084.83435	1.20433E-08
1084.97266	1.20648E-08
1085.11096	1.20864E-08
1085.24927	1.21081E-08
1085.38757	1.21297E-08
1085.52588	1.21514E-08
1085.66419	1.21730E-08
1085.80249	1.21946E-08
1085.94080	1.22160E-08
1086.07898	1.22373E-08
1086.21729	1.22584E-08
1086.35559	1.22793E-08
1086.49390	1.22999E-08
1086.63220	1.23202E-08
1086.77051	1.23403E-08
1086.90881	1.23600E-08
1087.04712	1.23792E-08
1087.18543	1.23981E-08
1087.32373	1.24165E-08
1087.46204	1.24344E-08
1087.60034	1.24519E-08
1087.73865	1.24687E-08
1087.87695	1.24850E-08
1088.01526	1.25007E-08
1088.15356	1.25158E-08
1088.29187	1.25303E-08
1088.43018	1.25441E-08
1088.56848	1.25572E-08
1088.70679	1.25696E-08
1088.84509	1.25814E-08
1088.98340	1.25924E-08
1089.12170	1.26026E-08
1089.26001	1.26122E-08
1089.39832	1.26210E-08
1089.53662	1.26290E-08
1089.67493	1.26364E-08
1089.81323	1.26429E-08
1089.95142	1.26488E-08
1090.08972	1.26539E-08
1090.22803	1.26583E-08
1090.36633	1.26620E-08
1090.50464	1.26650E-08
1090.64294	1.26674E-08
1090.78125	1.26691E-08
1090.91956	1.26702E-08
1091.05786	1.26707E-08
1091.19617	1.26706E-08
1091.33447	1.26700E-08
1091.47278	1.26688E-08
1091.61108	1.26673E-08
1091.74939	1.26652E-08
1091.88770	1.26628E-08
1092.02600	1.26600E-08
1092.16431	1.26570E-08
1092.30261	1.26536E-08
1092.44092	1.26500E-08
1092.57922	1.26462E-08
1092.71753	1.26423E-08
1092.85584	1.26383E-08
1092.99414	1.26343E-08
1093.13245	1.26303E-08
1093.27075	1.26263E-08
1093.40906	1.26224E-08
1093.54736	1.26187E-08
1093.68555	1.26152E-08
1093.82385	1.26119E-08
1093.96216	1.26089E-08
1094.10046	1.26062E-08
1094.23877	1.26039E-08
1094.37708	1.26020E-08
1094.51538	1.26006E-08
1094.65369	1.25997E-08
1094.79199	1.25993E-08
1094.93030	1.25995E-08
1095.06860	1.26003E-08
1095.20691	1.26017E-08
1095.34522	1.26038E-08
1095.48352	1.26066E-08
1095.62183	1.26101E-08
1095.76013	1.26143E-08
1095.89844	1.26193E-08
1096.03674	1.26252E-08
1096.17505	1.26318E-08
1096.31335	1.26392E-08
1096.45166	1.26475E-08
1096.58997	1.26566E-08
1096.72827	1.26666E-08
1096.86658	1.26774E-08
1097.00488	1.26891E-08
1097.14319	1.27016E-08
1097.28149	1.27150E-08
1097.41968	1.27292E-08
1097.55798	1.27443E-08
1097.69629	1.27601E-08
1097.83460	1.27768E-08
1097.97290	1.27942E-08
1098.11121	1.28124E-08
1098.24951	1.28314E-08
1098.38782	1.28510E-08
1098.52612	1.28714E-08
1098.66443	1.28924E-08
1098.80273	1.29140E-08
1098.94104	1.29363E-08
1099.07935	1.29590E-08
1099.21765	1.29823E-08
1099.35596	1.30061E-08
1099.49426	1.30303E-08
1099.63257	1.30548E-08
1099.77087	1.30797E-08
1099.90918	1.31049E-08
1100.04749	1.31304E-08
1100.18579	1.31560E-08
1100.32410	1.31817E-08
1100.46240	1.32076E-08
1100.60071	1.32335E-08
1100.73901	1.32593E-08
1100.87732	1.32851E-08
1101.01563	1.33108E-08
1101.15381	1.33363E-08
1101.29211	1.33615E-08
1101.43042	1.33865E-08
1101.56873	1.34111E-08
1101.70703	1.34353E-08
1101.84534	1.34590E-08
1101.98364	1.34823E-08
1102.12195	1.35050E-08
1102.26025	1.35272E-08
1102.39856	1.35486E-08
1102.53687	1.35694E-08
1102.67517	1.35895E-08
1102.81348	1.36089E-08
1102.95178	1.36274E-08
1103.09009	1.36451E-08
1103.22839	1.36619E-08
1103.36670	1.36778E-08
1103.50501	1.36929E-08
1103.64331	1.37070E-08
1103.78162	1.37201E-08
1103.91992	1.37322E-08
1104.05823	1.37434E-08
1104.19653	1.37536E-08
1104.33484	1.37629E-08
1104.47315	1.37711E-08
1104.61145	1.37784E-08
1104.74976	1.37848E-08
1104.88794	1.37902E-08
1105.02625	1.37947E-08
1105.16455	1.37983E-08
1105.30286	1.38010E-08
1105.44116	1.38029E-08
1105.57947	1.38040E-08
1105.71777	1.38044E-08
1105.85608	1.38041E-08
1105.99439	1.38031E-08
1106.13269	1.38016E-08
1106.27100	1.37995E-08
1106.40930	1.37970E-08
1106.54761	1.37941E-08
1106.68591	1.37909E-08
1106.82422	1.37874E-08
1106.96252	1.37838E-08
1107.10083	1.37801E-08
1107.23914	1.37763E-08
1107.37744	1.37727E-08
1107.51575	1.37693E-08
1107.65405	1.37661E-08
1107.79236	1.37632E-08
1107.93066	1.37608E-08
1108.06897	1.37590E-08
1108.20728	1.37577E-08
1108.34558	1.37572E-08
1108.48389	1.37576E-08
1108.62207	1.37588E-08
1108.76038	1.37610E-08
1108.89868	1.37643E-08
1109.03699	1.37687E-08
1109.17529	1.37745E-08
1109.31360	1.37816E-08
1109.45190	1.37901E-08
1109.59021	1.38001E-08
1109.72852	1.38117E-08
1109.86682	1.38250E-08
1110.00513	1.38400E-08
1110.14343	1.38568E-08
1110.28174	1.38754E-08
1110.42004	1.38960E-08
1110.55835	1.39186E-08
1110.69666	1.39432E-08
1110.83496	1.39700E-08
1110.97327	1.39988E-08
1111.11157	1.40299E-08
1111.24988	1.40632E-08
1111.38818	1.40987E-08
1111.52649	1.41366E-08
1111.66480	1.41768E-08
1111.80310	1.42193E-08
1111.94141	1.42641E-08
1112.07971	1.43114E-08
1112.21802	1.43610E-08
1112.35620	1.44131E-08
1112.49451	1.44675E-08
1112.63281	1.45243E-08
1112.77112	1.45835E-08
1112.90942	1.46451E-08
1113.04773	1.47090E-08
1113.18604	1.47752E-08
1113.32434	1.48438E-08
1113.46265	1.49146E-08
1113.60095	1.49877E-08
1113.73926	1.50630E-08
1113.87756	1.51404E-08
1114.01587	1.52199E-08
1114.15418	1.53015E-08
1114.29248	1.53852E-08
1114.43079	1.54707E-08
1114.56909	1.55581E-08
1114.70740	1.56474E-08
1114.84570	1.57384E-08
1114.98401	1.58310E-08
1115.12231	1.59253E-08
1115.26062	1.60210E-08
1115.39893	1.61182E-08
1115.53723	1.62167E-08
1115.67554	1.63164E-08
1115.81384	1.64173E-08
1115.95215	1.65191E-08
1116.09033	1.66218E-08
1116.22864	1.67254E-08
1116.36694	1.68296E-08
1116.50525	1.69344E-08
1116.64356	1.70396E-08
1116.78186	1.71451E-08
1116.92017	1.72508E-08
1117.05847	1.73564E-08
1117.19678	1.74619E-08
1117.33508	1.75670E-08
1117.47339	1.76717E-08
1117.61169	1.77757E-08
1117.75000	1.78789E-08
1117.88831	1.79810E-08
1118.02661	1.80820E-08
1118.16492	1.81816E-08
1118.30322	1.82797E-08
1118.44153	1.83760E-08
1118.57983	1.84703E-08
1118.71814	1.85624E-08
1118.85645	1.86523E-08
1118.99475	1.87396E-08
1119.13306	1.88243E-08
1119.27136	1.89061E-08
1119.40967	1.89849E-08
1119.54797	1.90604E-08
1119.68628	1.91327E-08
1119.82459	1.92015E-08
1119.96277	1.92668E-08
1120.10107	1.93283E-08
1120.23938	1.93862E-08
1120.37769	1.94402E-08
1120.51599	1.94904E-08
1120.65430	1.95368E-08
1120.79260	1.95794E-08
1120.93091	1.96182E-08
1121.06921	1.96532E-08
1121.20752	1.96846E-08
1121.34583	1.97126E-08
1121.48413	1.97370E-08
1121.62244	1.97583E-08
1121.76074	1.97765E-08
1121.89905	1.97918E-08
1122.03735	1.98044E-08
1122.17566	1.98146E-08
1122.31397	1.98227E-08
1122.45227	1.98289E-08
1122.59058	1.98334E-08
1122.72888	1.98366E-08
1122.86719	1.98387E-08
1123.00549	1.98401E-08
1123.14380	1.98410E-08
1123.28210	1.98418E-08
1123.42041	1.98428E-08
1123.55872	1.98443E-08
1123.69690	1.98466E-08
1123.83521	1.98500E-08
1123.97351	1.98549E-08
1124.11182	1.98615E-08
1124.25012	1.98702E-08
1124.38843	1.98812E-08
1124.52673	1.98949E-08
1124.66504	1.99117E-08
1124.80335	1.99316E-08
1124.94165	1.99551E-08
1125.07996	1.99825E-08
1125.21826	2.00139E-08
1125.35657	2.00497E-08
1125.49487	2.00902E-08
1125.63318	2.01356E-08
1125.77148	2.01862E-08
1125.90979	2.02423E-08
1126.04810	2.03041E-08
1126.18640	2.03719E-08
1126.32471	2.04460E-08
1126.46301	2.05266E-08
1126.60132	2.06141E-08
1126.73962	2.07086E-08
1126.87793	2.08105E-08
1127.01624	2.09201E-08
1127.15454	2.10377E-08
1127.29285	2.11635E-08
1127.43103	2.12980E-08
1127.56934	2.14415E-08
1127.70764	2.15943E-08
1127.84595	2.17570E-08
1127.98425	2.19299E-08
1128.12256	2.21137E-08
1128.26086	2.23090E-08
1128.39917	2.25163E-08
1128.53748	2.27363E-08
1128.67578	2.29702E-08
1128.81409	2.32186E-08
1128.95239	2.34829E-08
1129.09070	2.37646E-08
1129.22900	2.40653E-08
1129.36731	2.43871E-08
1129.50562	2.47325E-08
1129.64392	2.51048E-08
1129.78223	2.55076E-08
1129.92053	2.59461E-08
1130.05884	2.64265E-08
1130.19714	2.69570E-08
1130.33545	2.75487E-08
1130.47376	2.82162E-08
1130.61206	2.89796E-08
1130.75037	2.98674E-08
1130.88867	3.09208E-08
1131.02698	3.22021E-08
1131.16516	3.38092E-08
1131.30347	3.59061E-08
1131.44177	3.87875E-08
1131.58008	4.30424E-08
1131.71838	5.00361E-08
1131.85669	6.38038E-08
1131.99500	1.03683E-07
1132.13330	1.51497E-06
1132.27161	-7.22224E-08
1132.40991	-2.52427E-08
1132.54822	-1.11439E-08
1132.68652	-5.45713E-09
1132.82483	-3.84689E-09